cond.thisRepN,cond.thisTrialN,cond.thisN,cond.thisIndex,trials.thisRepN,trials.thisTrialN,trials.thisN,trials.thisIndex,digit_rep.thisRepN,digit_rep.thisTrialN,digit_rep.thisN,digit_rep.thisIndex,thisRow.t,notes,sequence_started,sequence_ended,digit_sequence,result_box.text,confirm_input.keys,confirm_input.rt,confirm_input.duration,input_ended,participant,order,date,expName,psychopyVersion,frameRate,expStart,
0,0,0,0,0,0,0,0,0,0,0,0,14.099264699965715,,18:33:06.608197,,,,,,,,1,1,2024-06-28_18h32.39.157,digit_span,2023.2.3,60.048663436895694,2024-06-28 18h32.53.941354 +0200,
0,0,0,0,0,0,0,0,1,0,1,0,14.975860099948477,,,,,,,,,,1,1,2024-06-28_18h32.39.157,digit_span,2023.2.3,60.048663436895694,2024-06-28 18h32.53.941354 +0200,
0,0,0,0,0,0,0,0,2,0,2,0,16.110737399954814,,,18:33:10.814007,,,,,,,1,1,2024-06-28_18h32.39.157,digit_span,2023.2.3,60.048663436895694,2024-06-28 18h32.53.941354 +0200,
0,0,0,0,0,0,0,0,,,,,,,,,"[0, 8, 6]",086 ,space,2.8746315999887884,None,18:33:13.838597,1,1,2024-06-28_18h32.39.157,digit_span,2023.2.3,60.048663436895694,2024-06-28 18h32.53.941354 +0200,
0,0,0,0,1,0,1,0,0,0,0,0,21.124288299994078,,18:33:13.839761,,,,,,,,1,1,2024-06-28_18h32.39.157,digit_span,2023.2.3,60.048663436895694,2024-06-28 18h32.53.941354 +0200,
0,0,0,0,1,0,1,0,1,0,1,0,22.209827799990308,,,,,,,,,,1,1,2024-06-28_18h32.39.157,digit_span,2023.2.3,60.048663436895694,2024-06-28 18h32.53.941354 +0200,
0,0,0,0,1,0,1,0,2,0,2,0,23.328673999989405,,,18:33:18.045118,,,,,,,1,1,2024-06-28_18h32.39.157,digit_span,2023.2.3,60.048663436895694,2024-06-28 18h32.53.941354 +0200,
0,0,0,0,1,0,1,0,,,,,,,,,"[1, 3, 9]",139,space,1.9242565999738872,None,18:33:20.080072,1,1,2024-06-28_18h32.39.157,digit_span,2023.2.3,60.048663436895694,2024-06-28 18h32.53.941354 +0200,
0,0,0,0,2,0,2,0,0,0,0,0,27.337425499979872,,18:33:20.081062,,,,,,,,1,1,2024-06-28_18h32.39.157,digit_span,2023.2.3,60.048663436895694,2024-06-28 18h32.53.941354 +0200,
0,0,0,0,2,0,2,0,1,0,1,0,28.437254499993287,,,,,,,,,,1,1,2024-06-28_18h32.39.157,digit_span,2023.2.3,60.048663436895694,2024-06-28 18h32.53.941354 +0200,
0,0,0,0,2,0,2,0,2,0,2,0,29.53710819996195,,,18:33:24.292561,,,,,,,1,1,2024-06-28_18h32.39.157,digit_span,2023.2.3,60.048663436895694,2024-06-28 18h32.53.941354 +0200,
0,0,0,0,2,0,2,0,,,,,,,,,"[1, 8, 6]",186 ,space,2.051204899966251,None,18:33:26.460880,1,1,2024-06-28_18h32.39.157,digit_span,2023.2.3,60.048663436895694,2024-06-28 18h32.53.941354 +0200,
0,0,0,0,3,0,3,0,0,0,0,0,33.70198319997871,,18:33:26.460880,,,,,,,,1,1,2024-06-28_18h32.39.157,digit_span,2023.2.3,60.048663436895694,2024-06-28 18h32.53.941354 +0200,
0,0,0,0,3,0,3,0,1,0,1,0,34.80192859994713,,,,,,,,,,1,1,2024-06-28_18h32.39.157,digit_span,2023.2.3,60.048663436895694,2024-06-28 18h32.53.941354 +0200,
0,0,0,0,3,0,3,0,2,0,2,0,35.90131879999535,,,18:33:30.658304,,,,,,,1,1,2024-06-28_18h32.39.157,digit_span,2023.2.3,60.048663436895694,2024-06-28 18h32.53.941354 +0200,
0,0,0,0,3,0,3,0,,,,,,,,,"[6, 3, 1]",631 ,space,1.7878281999728642,None,18:33:32.565575,1,1,2024-06-28_18h32.39.157,digit_span,2023.2.3,60.048663436895694,2024-06-28 18h32.53.941354 +0200,
0,0,0,0,4,0,4,0,0,0,0,0,39.87226249999367,,18:33:32.566572,,,,,,,,1,1,2024-06-28_18h32.39.157,digit_span,2023.2.3,60.048663436895694,2024-06-28 18h32.53.941354 +0200,
0,0,0,0,4,0,4,0,1,0,1,0,40.916913699998986,,,,,,,,,,1,1,2024-06-28_18h32.39.157,digit_span,2023.2.3,60.048663436895694,2024-06-28 18h32.53.941354 +0200,
0,0,0,0,4,0,4,0,2,0,2,0,42.05721040000208,,,18:33:36.772145,,,,,,,1,1,2024-06-28_18h32.39.157,digit_span,2023.2.3,60.048663436895694,2024-06-28 18h32.53.941354 +0200,
0,0,0,0,4,0,4,0,,,,,,,,,"[4, 8, 7]",487,space,1.4156900000525638,None,18:33:38.291733,1,1,2024-06-28_18h32.39.157,digit_span,2023.2.3,60.048663436895694,2024-06-28 18h32.53.941354 +0200,
0,0,0,0,5,0,5,0,0,0,0,0,45.533038199995644,,18:33:38.292735,,,,,,,,1,1,2024-06-28_18h32.39.157,digit_span,2023.2.3,60.048663436895694,2024-06-28 18h32.53.941354 +0200,
0,0,0,0,5,0,5,0,1,0,1,0,46.69047219998902,,,,,,,,,,1,1,2024-06-28_18h32.39.157,digit_span,2023.2.3,60.048663436895694,2024-06-28 18h32.53.941354 +0200,
0,0,0,0,5,0,5,0,2,0,2,0,47.747263099998236,,,18:33:42.504113,,,,,,,1,1,2024-06-28_18h32.39.157,digit_span,2023.2.3,60.048663436895694,2024-06-28 18h32.53.941354 +0200,
0,0,0,0,5,0,5,0,,,,,,,,,"[3, 2, 8]",328,space,1.3646263999980874,None,18:33:43.977552,1,1,2024-06-28_18h32.39.157,digit_span,2023.2.3,60.048663436895694,2024-06-28 18h32.53.941354 +0200,
0,0,0,0,6,0,6,0,0,0,0,0,51.219286799954716,,18:33:43.977552,,,,,,,,1,1,2024-06-28_18h32.39.157,digit_span,2023.2.3,60.048663436895694,2024-06-28 18h32.53.941354 +0200,
0,0,0,0,6,0,6,0,1,0,1,0,52.32988999999361,,,,,,,,,,1,1,2024-06-28_18h32.39.157,digit_span,2023.2.3,60.048663436895694,2024-06-28 18h32.53.941354 +0200,
0,0,0,0,6,0,6,0,2,0,2,0,53.4294028999866,,,18:33:48.185553,,,,,,,1,1,2024-06-28_18h32.39.157,digit_span,2023.2.3,60.048663436895694,2024-06-28 18h32.53.941354 +0200,
0,0,0,0,6,0,6,0,,,,,,,,,"[2, 8, 1]",321,space,5.607084899966139,None,18:33:53.902007,1,1,2024-06-28_18h32.39.157,digit_span,2023.2.3,60.048663436895694,2024-06-28 18h32.53.941354 +0200,
0,0,0,0,7,0,7,0,0,0,0,0,61.143810599984135,,18:33:53.902007,,,,,,,,1,1,2024-06-28_18h32.39.157,digit_span,2023.2.3,60.048663436895694,2024-06-28 18h32.53.941354 +0200,
0,0,0,0,7,0,7,0,1,0,1,0,62.2428192999796,,,,,,,,,,1,1,2024-06-28_18h32.39.157,digit_span,2023.2.3,60.048663436895694,2024-06-28 18h32.53.941354 +0200,
0,0,0,0,7,0,7,0,2,0,2,0,63.347072799981106,,,18:33:58.115767,,,,,,,1,1,2024-06-28_18h32.39.157,digit_span,2023.2.3,60.048663436895694,2024-06-28 18h32.53.941354 +0200,
0,0,0,0,7,0,7,0,,,,,,,,,"[8, 2, 4]",824 ,space,3.454127500008326,None,18:34:01.690452,1,1,2024-06-28_18h32.39.157,digit_span,2023.2.3,60.048663436895694,2024-06-28 18h32.53.941354 +0200,
0,0,0,0,8,0,8,0,0,0,0,0,68.93122269999003,,18:34:01.691448,,,,,,,,1,1,2024-06-28_18h32.39.157,digit_span,2023.2.3,60.048663436895694,2024-06-28 18h32.53.941354 +0200,
0,0,0,0,8,0,8,0,1,0,1,0,70.05947089998517,,,,,,,,,,1,1,2024-06-28_18h32.39.157,digit_span,2023.2.3,60.048663436895694,2024-06-28 18h32.53.941354 +0200,
0,0,0,0,8,0,8,0,2,0,2,0,71.14009869995061,,,18:34:05.896520,,,,,,,1,1,2024-06-28_18h32.39.157,digit_span,2023.2.3,60.048663436895694,2024-06-28 18h32.53.941354 +0200,
0,0,0,0,8,0,8,0,,,,,,,,,"[0, 5, 9]",059,space,1.2275667999638245,None,18:34:07.232124,1,1,2024-06-28_18h32.39.157,digit_span,2023.2.3,60.048663436895694,2024-06-28 18h32.53.941354 +0200,
0,0,0,0,9,0,9,0,0,0,0,0,74.4723507000017,,18:34:07.233118,,,,,,,,1,1,2024-06-28_18h32.39.157,digit_span,2023.2.3,60.048663436895694,2024-06-28 18h32.53.941354 +0200,
0,0,0,0,9,0,9,0,1,0,1,0,75.57190419995459,,,,,,,,,,1,1,2024-06-28_18h32.39.157,digit_span,2023.2.3,60.048663436895694,2024-06-28 18h32.53.941354 +0200,
0,0,0,0,9,0,9,0,2,0,2,0,76.67207579995738,,,18:34:11.429739,,,,,,,1,1,2024-06-28_18h32.39.157,digit_span,2023.2.3,60.048663436895694,2024-06-28 18h32.53.941354 +0200,
0,0,0,0,9,0,9,0,,,,,,,,,"[2, 3, 0]",230,space,0.824178499984555,None,18:34:12.363039,1,1,2024-06-28_18h32.39.157,digit_span,2023.2.3,60.048663436895694,2024-06-28 18h32.53.941354 +0200,
0,0,0,0,10,0,10,0,0,0,0,0,79.60426309995819,,18:34:12.364017,,,,,,,,1,1,2024-06-28_18h32.39.157,digit_span,2023.2.3,60.048663436895694,2024-06-28 18h32.53.941354 +0200,
0,0,0,0,10,0,10,0,1,0,1,0,80.70379409997258,,,,,,,,,,1,1,2024-06-28_18h32.39.157,digit_span,2023.2.3,60.048663436895694,2024-06-28 18h32.53.941354 +0200,
0,0,0,0,10,0,10,0,2,0,2,0,81.80389329994796,,,18:34:16.561404,,,,,,,1,1,2024-06-28_18h32.39.157,digit_span,2023.2.3,60.048663436895694,2024-06-28 18h32.53.941354 +0200,
0,0,0,0,10,0,10,0,,,,,,,,,"[8, 4, 0]",840,space,0.7806844000006095,None,18:34:17.460521,1,1,2024-06-28_18h32.39.157,digit_span,2023.2.3,60.048663436895694,2024-06-28 18h32.53.941354 +0200,
0,0,0,0,11,0,11,0,0,0,0,0,84.70275850000326,,18:34:17.461514,,,,,,,,1,1,2024-06-28_18h32.39.157,digit_span,2023.2.3,60.048663436895694,2024-06-28 18h32.53.941354 +0200,
0,0,0,0,11,0,11,0,1,0,1,0,85.80215389997466,,,,,,,,,,1,1,2024-06-28_18h32.39.157,digit_span,2023.2.3,60.048663436895694,2024-06-28 18h32.53.941354 +0200,
0,0,0,0,11,0,11,0,2,0,2,0,86.90147399995476,,,18:34:21.657982,,,,,,,1,1,2024-06-28_18h32.39.157,digit_span,2023.2.3,60.048663436895694,2024-06-28 18h32.53.941354 +0200,
0,0,0,0,11,0,11,0,,,,,,,,,"[3, 2, 5]",025,space,5.054943100025412,None,18:34:26.826830,1,1,2024-06-28_18h32.39.157,digit_span,2023.2.3,60.048663436895694,2024-06-28 18h32.53.941354 +0200,
0,0,0,0,12,0,12,0,0,0,0,0,94.07746819994645,,18:34:26.826830,,,,,,,,1,1,2024-06-28_18h32.39.157,digit_span,2023.2.3,60.048663436895694,2024-06-28 18h32.53.941354 +0200,
0,0,0,0,12,0,12,0,1,0,1,0,95.18289429997094,,,,,,,,,,1,1,2024-06-28_18h32.39.157,digit_span,2023.2.3,60.048663436895694,2024-06-28 18h32.53.941354 +0200,
0,0,0,0,12,0,12,0,2,0,2,0,96.28246439999202,,,18:34:31.037728,,,,,,,1,1,2024-06-28_18h32.39.157,digit_span,2023.2.3,60.048663436895694,2024-06-28 18h32.53.941354 +0200,
0,0,0,0,12,0,12,0,,,,,,,,,"[4, 7, 0]",470,space,0.8928932000417262,None,18:34:32.041310,1,1,2024-06-28_18h32.39.157,digit_span,2023.2.3,60.048663436895694,2024-06-28 18h32.53.941354 +0200,
0,0,0,0,13,0,13,0,0,0,0,0,99.28129289997742,,18:34:32.042305,,,,,,,,1,1,2024-06-28_18h32.39.157,digit_span,2023.2.3,60.048663436895694,2024-06-28 18h32.53.941354 +0200,
0,0,0,0,13,0,13,0,1,0,1,0,100.38413239998044,,,,,,,,,,1,1,2024-06-28_18h32.39.157,digit_span,2023.2.3,60.048663436895694,2024-06-28 18h32.53.941354 +0200,
0,0,0,0,13,0,13,0,2,0,2,0,101.49716759996954,,,18:34:36.253470,,,,,,,1,1,2024-06-28_18h32.39.157,digit_span,2023.2.3,60.048663436895694,2024-06-28 18h32.53.941354 +0200,
0,0,0,0,13,0,13,0,,,,,,,,,"[0, 3, 6]",036,space,1.356514499988407,None,18:34:37.722502,1,1,2024-06-28_18h32.39.157,digit_span,2023.2.3,60.048663436895694,2024-06-28 18h32.53.941354 +0200,
0,0,0,0,14,0,14,0,0,0,0,0,104.96321369998623,,18:34:37.723491,,,,,,,,1,1,2024-06-28_18h32.39.157,digit_span,2023.2.3,60.048663436895694,2024-06-28 18h32.53.941354 +0200,
0,0,0,0,14,0,14,0,1,0,1,0,106.06265229999553,,,,,,,,,,1,1,2024-06-28_18h32.39.157,digit_span,2023.2.3,60.048663436895694,2024-06-28 18h32.53.941354 +0200,
0,0,0,0,14,0,14,0,2,0,2,0,107.16294119996019,,,18:34:41.918863,,,,,,,1,1,2024-06-28_18h32.39.157,digit_span,2023.2.3,60.048663436895694,2024-06-28 18h32.53.941354 +0200,
0,0,0,0,14,0,14,0,,,,,,,,,"[2, 4, 9]",0234,space,3.0952509999624453,None,18:34:45.136466,1,1,2024-06-28_18h32.39.157,digit_span,2023.2.3,60.048663436895694,2024-06-28 18h32.53.941354 +0200,
0,0,0,0,,,,,,,,,,,,,,,,,,,1,1,2024-06-28_18h32.39.157,digit_span,2023.2.3,60.048663436895694,2024-06-28 18h32.53.941354 +0200,
1,0,1,0,0,0,0,0,0,0,0,0,114.91499239997938,,18:34:47.657901,,,,,,,,1,1,2024-06-28_18h32.39.157,digit_span,2023.2.3,60.048663436895694,2024-06-28 18h32.53.941354 +0200,
1,0,1,0,0,0,0,0,1,0,1,0,116.00977819995023,,,,,,,,,,1,1,2024-06-28_18h32.39.157,digit_span,2023.2.3,60.048663436895694,2024-06-28 18h32.53.941354 +0200,
1,0,1,0,0,0,0,0,2,0,2,0,117.10930609999923,,,,,,,,,,1,1,2024-06-28_18h32.39.157,digit_span,2023.2.3,60.048663436895694,2024-06-28 18h32.53.941354 +0200,
1,0,1,0,0,0,0,0,3,0,3,0,118.2086611999548,,,,,,,,,,1,1,2024-06-28_18h32.39.157,digit_span,2023.2.3,60.048663436895694,2024-06-28 18h32.53.941354 +0200,
1,0,1,0,0,0,0,0,4,0,4,0,119.30839919997379,,,18:34:54.064822,,,,,,,1,1,2024-06-28_18h32.39.157,digit_span,2023.2.3,60.048663436895694,2024-06-28 18h32.53.941354 +0200,
1,0,1,0,0,0,0,0,,,,,,,,,"[2, 1, 5, 6, 3]",26315 ,space,6.2367856000200845,None,18:35:00.422328,1,1,2024-06-28_18h32.39.157,digit_span,2023.2.3,60.048663436895694,2024-06-28 18h32.53.941354 +0200,
1,0,1,0,1,0,1,0,0,0,0,0,127.66117350000422,,18:35:00.423330,,,,,,,,1,1,2024-06-28_18h32.39.157,digit_span,2023.2.3,60.048663436895694,2024-06-28 18h32.53.941354 +0200,
1,0,1,0,1,0,1,0,1,0,1,0,128.7746811999823,,,,,,,,,,1,1,2024-06-28_18h32.39.157,digit_span,2023.2.3,60.048663436895694,2024-06-28 18h32.53.941354 +0200,
1,0,1,0,1,0,1,0,2,0,2,0,129.87242819997482,,,,,,,,,,1,1,2024-06-28_18h32.39.157,digit_span,2023.2.3,60.048663436895694,2024-06-28 18h32.53.941354 +0200,
1,0,1,0,1,0,1,0,3,0,3,0,130.97132389998296,,,,,,,,,,1,1,2024-06-28_18h32.39.157,digit_span,2023.2.3,60.048663436895694,2024-06-28 18h32.53.941354 +0200,
1,0,1,0,1,0,1,0,4,0,4,0,132.07436279999092,,,18:35:06.827824,,,,,,,1,1,2024-06-28_18h32.39.157,digit_span,2023.2.3,60.048663436895694,2024-06-28 18h32.53.941354 +0200,
1,0,1,0,1,0,1,0,,,,,,,,,"[2, 5, 1, 3, 4]",5134,space,5.477664700010791,None,18:35:12.412676,1,1,2024-06-28_18h32.39.157,digit_span,2023.2.3,60.048663436895694,2024-06-28 18h32.53.941354 +0200,
1,0,1,0,2,0,2,0,0,0,0,0,139.65234769997187,,18:35:12.413673,,,,,,,,1,1,2024-06-28_18h32.39.157,digit_span,2023.2.3,60.048663436895694,2024-06-28 18h32.53.941354 +0200,
1,0,1,0,2,0,2,0,1,0,1,0,140.7519947999972,,,,,,,,,,1,1,2024-06-28_18h32.39.157,digit_span,2023.2.3,60.048663436895694,2024-06-28 18h32.53.941354 +0200,
1,0,1,0,2,0,2,0,2,0,2,0,141.85499849996995,,,,,,,,,,1,1,2024-06-28_18h32.39.157,digit_span,2023.2.3,60.048663436895694,2024-06-28 18h32.53.941354 +0200,
1,0,1,0,2,0,2,0,3,0,3,0,142.9677248999942,,,,,,,,,,1,1,2024-06-28_18h32.39.157,digit_span,2023.2.3,60.048663436895694,2024-06-28 18h32.53.941354 +0200,
1,0,1,0,2,0,2,0,4,0,4,0,144.06769199995324,,,18:35:18.823499,,,,,,,1,1,2024-06-28_18h32.39.157,digit_span,2023.2.3,60.048663436895694,2024-06-28 18h32.53.941354 +0200,
1,0,1,0,2,0,2,0,,,,,,,,,"[9, 4, 2, 0, 1]",94201 ,space,4.2871644999831915,None,18:35:23.225823,1,1,2024-06-28_18h32.39.157,digit_span,2023.2.3,60.048663436895694,2024-06-28 18h32.53.941354 +0200,
1,0,1,0,3,0,3,0,0,0,0,0,150.46491909999168,,18:35:23.225823,,,,,,,,1,1,2024-06-28_18h32.39.157,digit_span,2023.2.3,60.048663436895694,2024-06-28 18h32.53.941354 +0200,
1,0,1,0,3,0,3,0,1,0,1,0,151.5651932999608,,,,,,,,,,1,1,2024-06-28_18h32.39.157,digit_span,2023.2.3,60.048663436895694,2024-06-28 18h32.53.941354 +0200,
1,0,1,0,3,0,3,0,2,0,2,0,152.66481919999933,,,,,,,,,,1,1,2024-06-28_18h32.39.157,digit_span,2023.2.3,60.048663436895694,2024-06-28 18h32.53.941354 +0200,
1,0,1,0,3,0,3,0,3,0,3,0,153.7642249999917,,,,,,,,,,1,1,2024-06-28_18h32.39.157,digit_span,2023.2.3,60.048663436895694,2024-06-28 18h32.53.941354 +0200,
1,0,1,0,3,0,3,0,4,0,4,0,154.8640622999519,,,18:35:29.620055,,,,,,,1,1,2024-06-28_18h32.39.157,digit_span,2023.2.3,60.048663436895694,2024-06-28 18h32.53.941354 +0200,
1,0,1,0,3,0,3,0,,,,,,,,,"[0, 5, 9, 6, 1]",05961 ,space,3.790098700032104,None,18:35:33.540467,1,1,2024-06-28_18h32.39.157,digit_span,2023.2.3,60.048663436895694,2024-06-28 18h32.53.941354 +0200,
1,0,1,0,4,0,4,0,0,0,0,0,160.78322549996665,,18:35:33.541478,,,,,,,,1,1,2024-06-28_18h32.39.157,digit_span,2023.2.3,60.048663436895694,2024-06-28 18h32.53.941354 +0200,
1,0,1,0,4,0,4,0,1,0,1,0,161.89835279999534,,,,,,,,,,1,1,2024-06-28_18h32.39.157,digit_span,2023.2.3,60.048663436895694,2024-06-28 18h32.53.941354 +0200,
1,0,1,0,4,0,4,0,2,0,2,0,162.99523719999706,,,,,,,,,,1,1,2024-06-28_18h32.39.157,digit_span,2023.2.3,60.048663436895694,2024-06-28 18h32.53.941354 +0200,
1,0,1,0,4,0,4,0,3,0,3,0,164.0939525999711,,,,,,,,,,1,1,2024-06-28_18h32.39.157,digit_span,2023.2.3,60.048663436895694,2024-06-28 18h32.53.941354 +0200,
1,0,1,0,4,0,4,0,4,0,4,0,165.19419189996552,,,18:35:39.950792,,,,,,,1,1,2024-06-28_18h32.39.157,digit_span,2023.2.3,60.048663436895694,2024-06-28 18h32.53.941354 +0200,
1,0,1,0,4,0,4,0,,,,,,,,,"[5, 1, 7, 3, 2]",51732,space,7.846182300010696,None,18:35:47.900597,1,1,2024-06-28_18h32.39.157,digit_span,2023.2.3,60.048663436895694,2024-06-28 18h32.53.941354 +0200,
1,0,1,0,5,0,5,0,0,0,0,0,175.14102399995318,,18:35:47.900597,,,,,,,,1,1,2024-06-28_18h32.39.157,digit_span,2023.2.3,60.048663436895694,2024-06-28 18h32.53.941354 +0200,
1,0,1,0,5,0,5,0,1,0,1,0,176.24190149997594,,,,,,,,,,1,1,2024-06-28_18h32.39.157,digit_span,2023.2.3,60.048663436895694,2024-06-28 18h32.53.941354 +0200,
1,0,1,0,5,0,5,0,2,0,2,0,177.3591190999723,,,,,,,,,,1,1,2024-06-28_18h32.39.157,digit_span,2023.2.3,60.048663436895694,2024-06-28 18h32.53.941354 +0200,
1,0,1,0,5,0,5,0,3,0,3,0,178.45610199996736,,,,,,,,,,1,1,2024-06-28_18h32.39.157,digit_span,2023.2.3,60.048663436895694,2024-06-28 18h32.53.941354 +0200,
1,0,1,0,5,0,5,0,4,0,4,0,179.5562760999892,,,18:35:54.311717,,,,,,,1,1,2024-06-28_18h32.39.157,digit_span,2023.2.3,60.048663436895694,2024-06-28 18h32.53.941354 +0200,
1,0,1,0,5,0,5,0,,,,,,,,,"[1, 9, 5, 8, 0]",19580 ,space,6.737551700032782,None,18:36:01.169321,1,1,2024-06-28_18h32.39.157,digit_span,2023.2.3,60.048663436895694,2024-06-28 18h32.53.941354 +0200,
1,0,1,0,6,0,6,0,0,0,0,0,188.40321699995548,,18:36:01.170317,,,,,,,,1,1,2024-06-28_18h32.39.157,digit_span,2023.2.3,60.048663436895694,2024-06-28 18h32.53.941354 +0200,
1,0,1,0,6,0,6,0,1,0,1,0,189.50589319999563,,,,,,,,,,1,1,2024-06-28_18h32.39.157,digit_span,2023.2.3,60.048663436895694,2024-06-28 18h32.53.941354 +0200,
1,0,1,0,6,0,6,0,2,0,2,0,190.62230889999773,,,,,,,,,,1,1,2024-06-28_18h32.39.157,digit_span,2023.2.3,60.048663436895694,2024-06-28 18h32.53.941354 +0200,
1,0,1,0,6,0,6,0,3,0,3,0,191.71996659995057,,,,,,,,,,1,1,2024-06-28_18h32.39.157,digit_span,2023.2.3,60.048663436895694,2024-06-28 18h32.53.941354 +0200,
1,0,1,0,6,0,6,0,4,0,4,0,192.82294669997646,,,18:36:07.574997,,,,,,,1,1,2024-06-28_18h32.39.157,digit_span,2023.2.3,60.048663436895694,2024-06-28 18h32.53.941354 +0200,
1,0,1,0,6,0,6,0,,,,,,,,,"[4, 9, 0, 1, 7]",49017 ,space,1.9373971999739297,None,18:36:09.628219,1,1,2024-06-28_18h32.39.157,digit_span,2023.2.3,60.048663436895694,2024-06-28 18h32.53.941354 +0200,
1,0,1,0,7,0,7,0,0,0,0,0,196.8719221999636,,18:36:09.629342,,,,,,,,1,1,2024-06-28_18h32.39.157,digit_span,2023.2.3,60.048663436895694,2024-06-28 18h32.53.941354 +0200,
1,0,1,0,7,0,7,0,1,0,1,0,197.98572099994635,,,,,,,,,,1,1,2024-06-28_18h32.39.157,digit_span,2023.2.3,60.048663436895694,2024-06-28 18h32.53.941354 +0200,
1,0,1,0,7,0,7,0,2,0,2,0,199.08822989999317,,,,,,,,,,1,1,2024-06-28_18h32.39.157,digit_span,2023.2.3,60.048663436895694,2024-06-28 18h32.53.941354 +0200,
1,0,1,0,7,0,7,0,3,0,3,0,200.18614799994975,,,,,,,,,,1,1,2024-06-28_18h32.39.157,digit_span,2023.2.3,60.048663436895694,2024-06-28 18h32.53.941354 +0200,
1,0,1,0,7,0,7,0,4,0,4,0,201.28286969999317,,,18:36:16.039726,,,,,,,1,1,2024-06-28_18h32.39.157,digit_span,2023.2.3,60.048663436895694,2024-06-28 18h32.53.941354 +0200,
1,0,1,0,7,0,7,0,,,,,,,,,"[1, 4, 7, 9, 6]",14796,space,2.629597900027875,None,18:36:18.775142,1,1,2024-06-28_18h32.39.157,digit_span,2023.2.3,60.048663436895694,2024-06-28 18h32.53.941354 +0200,
1,0,1,0,8,0,8,0,0,0,0,0,206.0145897999755,,18:36:18.775142,,,,,,,,1,1,2024-06-28_18h32.39.157,digit_span,2023.2.3,60.048663436895694,2024-06-28 18h32.53.941354 +0200,
1,0,1,0,8,0,8,0,1,0,1,0,207.11409709998406,,,,,,,,,,1,1,2024-06-28_18h32.39.157,digit_span,2023.2.3,60.048663436895694,2024-06-28 18h32.53.941354 +0200,
1,0,1,0,8,0,8,0,2,0,2,0,208.21798679995118,,,,,,,,,,1,1,2024-06-28_18h32.39.157,digit_span,2023.2.3,60.048663436895694,2024-06-28 18h32.53.941354 +0200,
1,0,1,0,8,0,8,0,3,0,3,0,209.3305274999584,,,,,,,,,,1,1,2024-06-28_18h32.39.157,digit_span,2023.2.3,60.048663436895694,2024-06-28 18h32.53.941354 +0200,
1,0,1,0,8,0,8,0,4,0,4,0,210.43187779997243,,,18:36:25.186098,,,,,,,1,1,2024-06-28_18h32.39.157,digit_span,2023.2.3,60.048663436895694,2024-06-28 18h32.53.941354 +0200,
1,0,1,0,8,0,8,0,,,,,,,,,"[0, 2, 8, 4, 3]",02843 ,space,3.214862600027118,None,18:36:28.525681,1,1,2024-06-28_18h32.39.157,digit_span,2023.2.3,60.048663436895694,2024-06-28 18h32.53.941354 +0200,
1,0,1,0,9,0,9,0,0,0,0,0,215.76401819998864,,18:36:28.527077,,,,,,,,1,1,2024-06-28_18h32.39.157,digit_span,2023.2.3,60.048663436895694,2024-06-28 18h32.53.941354 +0200,
1,0,1,0,9,0,9,0,1,0,1,0,216.87732549995417,,,,,,,,,,1,1,2024-06-28_18h32.39.157,digit_span,2023.2.3,60.048663436895694,2024-06-28 18h32.53.941354 +0200,
1,0,1,0,9,0,9,0,2,0,2,0,217.98008129996015,,,,,,,,,,1,1,2024-06-28_18h32.39.157,digit_span,2023.2.3,60.048663436895694,2024-06-28 18h32.53.941354 +0200,
1,0,1,0,9,0,9,0,3,0,3,0,219.07980680000037,,,,,,,,,,1,1,2024-06-28_18h32.39.157,digit_span,2023.2.3,60.048663436895694,2024-06-28 18h32.53.941354 +0200,
1,0,1,0,9,0,9,0,4,0,4,0,220.1767560999724,,,18:36:34.932292,,,,,,,1,1,2024-06-28_18h32.39.157,digit_span,2023.2.3,60.048663436895694,2024-06-28 18h32.53.941354 +0200,
1,0,1,0,9,0,9,0,,,,,,,,,"[1, 9, 0, 8, 7]",19087 ,space,6.89863890002016,None,18:36:41.958540,1,1,2024-06-28_18h32.39.157,digit_span,2023.2.3,60.048663436895694,2024-06-28 18h32.53.941354 +0200,
1,0,1,0,10,0,10,0,0,0,0,0,229.19040069996845,,18:36:41.958540,,,,,,,,1,1,2024-06-28_18h32.39.157,digit_span,2023.2.3,60.048663436895694,2024-06-28 18h32.53.941354 +0200,
1,0,1,0,10,0,10,0,1,0,1,0,230.28987419995246,,,,,,,,,,1,1,2024-06-28_18h32.39.157,digit_span,2023.2.3,60.048663436895694,2024-06-28 18h32.53.941354 +0200,
1,0,1,0,10,0,10,0,2,0,2,0,231.39153199997963,,,,,,,,,,1,1,2024-06-28_18h32.39.157,digit_span,2023.2.3,60.048663436895694,2024-06-28 18h32.53.941354 +0200,
1,0,1,0,10,0,10,0,3,0,3,0,232.506096099969,,,,,,,,,,1,1,2024-06-28_18h32.39.157,digit_span,2023.2.3,60.048663436895694,2024-06-28 18h32.53.941354 +0200,
1,0,1,0,10,0,10,0,4,0,4,0,233.60611689998768,,,18:36:48.361350,,,,,,,1,1,2024-06-28_18h32.39.157,digit_span,2023.2.3,60.048663436895694,2024-06-28 18h32.53.941354 +0200,
1,0,1,0,10,0,10,0,,,,,,,,,"[0, 9, 8, 2, 6]",09826 ,space,5.56834630004596,None,18:36:54.053897,1,1,2024-06-28_18h32.39.157,digit_span,2023.2.3,60.048663436895694,2024-06-28 18h32.53.941354 +0200,
1,0,1,0,11,0,11,0,0,0,0,0,241.30685829999857,,18:36:54.053897,,,,,,,,1,1,2024-06-28_18h32.39.157,digit_span,2023.2.3,60.048663436895694,2024-06-28 18h32.53.941354 +0200,
1,0,1,0,11,0,11,0,1,0,1,0,242.40485609997995,,,,,,,,,,1,1,2024-06-28_18h32.39.157,digit_span,2023.2.3,60.048663436895694,2024-06-28 18h32.53.941354 +0200,
1,0,1,0,11,0,11,0,2,0,2,0,243.50259289995302,,,,,,,,,,1,1,2024-06-28_18h32.39.157,digit_span,2023.2.3,60.048663436895694,2024-06-28 18h32.53.941354 +0200,
1,0,1,0,11,0,11,0,3,0,3,0,244.60292219999246,,,,,,,,,,1,1,2024-06-28_18h32.39.157,digit_span,2023.2.3,60.048663436895694,2024-06-28 18h32.53.941354 +0200,
1,0,1,0,11,0,11,0,4,0,4,0,245.70222340000328,,,18:37:00.458628,,,,,,,1,1,2024-06-28_18h32.39.157,digit_span,2023.2.3,60.048663436895694,2024-06-28 18h32.53.941354 +0200,
1,0,1,0,11,0,11,0,,,,,,,,,"[3, 2, 1, 7, 6]",32176,space,4.925095499958843,None,18:37:05.492189,1,1,2024-06-28_18h32.39.157,digit_span,2023.2.3,60.048663436895694,2024-06-28 18h32.53.941354 +0200,
1,0,1,0,12,0,12,0,0,0,0,0,252.7327413999592,,18:37:05.492189,,,,,,,,1,1,2024-06-28_18h32.39.157,digit_span,2023.2.3,60.048663436895694,2024-06-28 18h32.53.941354 +0200,
1,0,1,0,12,0,12,0,1,0,1,0,253.83271499996772,,,,,,,,,,1,1,2024-06-28_18h32.39.157,digit_span,2023.2.3,60.048663436895694,2024-06-28 18h32.53.941354 +0200,
1,0,1,0,12,0,12,0,2,0,2,0,254.93590819998644,,,,,,,,,,1,1,2024-06-28_18h32.39.157,digit_span,2023.2.3,60.048663436895694,2024-06-28 18h32.53.941354 +0200,
1,0,1,0,12,0,12,0,3,0,3,0,256.04828879999695,,,,,,,,,,1,1,2024-06-28_18h32.39.157,digit_span,2023.2.3,60.048663436895694,2024-06-28 18h32.53.941354 +0200,
1,0,1,0,12,0,12,0,4,0,4,0,257.148591199948,,,18:37:11.904521,,,,,,,1,1,2024-06-28_18h32.39.157,digit_span,2023.2.3,60.048663436895694,2024-06-28 18h32.53.941354 +0200,
1,0,1,0,12,0,12,0,,,,,,,,,"[0, 2, 7, 8, 9]",02786 ,space,8.197747199970763,None,18:37:20.223270,1,1,2024-06-28_18h32.39.157,digit_span,2023.2.3,60.048663436895694,2024-06-28 18h32.53.941354 +0200,
1,0,1,0,13,0,13,0,0,0,0,0,267.46155179996276,,18:37:20.223270,,,,,,,,1,1,2024-06-28_18h32.39.157,digit_span,2023.2.3,60.048663436895694,2024-06-28 18h32.53.941354 +0200,
1,0,1,0,13,0,13,0,1,0,1,0,268.56137619999936,,,,,,,,,,1,1,2024-06-28_18h32.39.157,digit_span,2023.2.3,60.048663436895694,2024-06-28 18h32.53.941354 +0200,
1,0,1,0,13,0,13,0,2,0,2,0,269.6606368999928,,,,,,,,,,1,1,2024-06-28_18h32.39.157,digit_span,2023.2.3,60.048663436895694,2024-06-28 18h32.53.941354 +0200,
1,0,1,0,13,0,13,0,3,0,3,0,270.76480679999804,,,,,,,,,,1,1,2024-06-28_18h32.39.157,digit_span,2023.2.3,60.048663436895694,2024-06-28 18h32.53.941354 +0200,
1,0,1,0,13,0,13,0,4,0,4,0,271.8824408999644,,,18:37:26.633108,,,,,,,1,1,2024-06-28_18h32.39.157,digit_span,2023.2.3,60.048663436895694,2024-06-28 18h32.53.941354 +0200,
1,0,1,0,13,0,13,0,,,,,,,,,"[1, 6, 5, 8, 3]",16583 ,space,4.1891818000003695,None,18:37:30.946444,1,1,2024-06-28_18h32.39.157,digit_span,2023.2.3,60.048663436895694,2024-06-28 18h32.53.941354 +0200,
1,0,1,0,14,0,14,0,0,0,0,0,278.19596179999644,,18:37:30.947462,,,,,,,,1,1,2024-06-28_18h32.39.157,digit_span,2023.2.3,60.048663436895694,2024-06-28 18h32.53.941354 +0200,
1,0,1,0,14,0,14,0,1,0,1,0,279.2942455000011,,,,,,,,,,1,1,2024-06-28_18h32.39.157,digit_span,2023.2.3,60.048663436895694,2024-06-28 18h32.53.941354 +0200,
1,0,1,0,14,0,14,0,2,0,2,0,280.39643249998335,,,,,,,,,,1,1,2024-06-28_18h32.39.157,digit_span,2023.2.3,60.048663436895694,2024-06-28 18h32.53.941354 +0200,
1,0,1,0,14,0,14,0,3,0,3,0,281.4905538999592,,,,,,,,,,1,1,2024-06-28_18h32.39.157,digit_span,2023.2.3,60.048663436895694,2024-06-28 18h32.53.941354 +0200,
1,0,1,0,14,0,14,0,4,0,4,0,282.5917041999637,,,18:37:37.362825,,,,,,,1,1,2024-06-28_18h32.39.157,digit_span,2023.2.3,60.048663436895694,2024-06-28 18h32.53.941354 +0200,
1,0,1,0,14,0,14,0,,,,,,,,,"[7, 3, 1, 9, 8]",273589 ,space,8.843054199998733,None,18:37:46.303957,1,1,2024-06-28_18h32.39.157,digit_span,2023.2.3,60.048663436895694,2024-06-28 18h32.53.941354 +0200,
1,0,1,0,,,,,,,,,,,,,,,,,,,1,1,2024-06-28_18h32.39.157,digit_span,2023.2.3,60.048663436895694,2024-06-28 18h32.53.941354 +0200,
2,0,2,0,0,0,0,0,0,0,0,0,296.8410767999594,,18:37:49.601307,,,,,,,,1,1,2024-06-28_18h32.39.157,digit_span,2023.2.3,60.048663436895694,2024-06-28 18h32.53.941354 +0200,
2,0,2,0,0,0,0,0,1,0,1,0,297.9513979999465,,,,,,,,,,1,1,2024-06-28_18h32.39.157,digit_span,2023.2.3,60.048663436895694,2024-06-28 18h32.53.941354 +0200,
2,0,2,0,0,0,0,0,2,0,2,0,299.05166749999626,,,,,,,,,,1,1,2024-06-28_18h32.39.157,digit_span,2023.2.3,60.048663436895694,2024-06-28 18h32.53.941354 +0200,
2,0,2,0,0,0,0,0,3,0,3,0,300.1513952999958,,,,,,,,,,1,1,2024-06-28_18h32.39.157,digit_span,2023.2.3,60.048663436895694,2024-06-28 18h32.53.941354 +0200,
2,0,2,0,0,0,0,0,4,0,4,0,301.2513339999714,,,,,,,,,,1,1,2024-06-28_18h32.39.157,digit_span,2023.2.3,60.048663436895694,2024-06-28 18h32.53.941354 +0200,
2,0,2,0,0,0,0,0,5,0,5,0,302.35400399996433,,,,,,,,,,1,1,2024-06-28_18h32.39.157,digit_span,2023.2.3,60.048663436895694,2024-06-28 18h32.53.941354 +0200,
2,0,2,0,0,0,0,0,6,0,6,0,303.45534399995813,,,,,,,,,,1,1,2024-06-28_18h32.39.157,digit_span,2023.2.3,60.048663436895694,2024-06-28 18h32.53.941354 +0200,
2,0,2,0,0,0,0,0,7,0,7,0,304.550846499973,,,18:37:59.305967,,,,,,,1,1,2024-06-28_18h32.39.157,digit_span,2023.2.3,60.048663436895694,2024-06-28 18h32.53.941354 +0200,
2,0,2,0,0,0,0,0,,,,,,,,,"[3, 7, 8, 2, 5, 1, 9, 0]",3752901,space,3.326024400012102,None,18:38:02.742708,1,1,2024-06-28_18h32.39.157,digit_span,2023.2.3,60.048663436895694,2024-06-28 18h32.53.941354 +0200,
2,0,2,0,1,0,1,0,0,0,0,0,309.9890314999502,,18:38:02.743705,,,,,,,,1,1,2024-06-28_18h32.39.157,digit_span,2023.2.3,60.048663436895694,2024-06-28 18h32.53.941354 +0200,
2,0,2,0,1,0,1,0,1,0,1,0,311.0975707999896,,,,,,,,,,1,1,2024-06-28_18h32.39.157,digit_span,2023.2.3,60.048663436895694,2024-06-28 18h32.53.941354 +0200,
2,0,2,0,1,0,1,0,2,0,2,0,312.19721889996435,,,,,,,,,,1,1,2024-06-28_18h32.39.157,digit_span,2023.2.3,60.048663436895694,2024-06-28 18h32.53.941354 +0200,
2,0,2,0,1,0,1,0,3,0,3,0,313.2968245999655,,,,,,,,,,1,1,2024-06-28_18h32.39.157,digit_span,2023.2.3,60.048663436895694,2024-06-28 18h32.53.941354 +0200,
2,0,2,0,1,0,1,0,4,0,4,0,314.39715899998555,,,,,,,,,,1,1,2024-06-28_18h32.39.157,digit_span,2023.2.3,60.048663436895694,2024-06-28 18h32.53.941354 +0200,
2,0,2,0,1,0,1,0,5,0,5,0,315.49636659998214,,,,,,,,,,1,1,2024-06-28_18h32.39.157,digit_span,2023.2.3,60.048663436895694,2024-06-28 18h32.53.941354 +0200,
2,0,2,0,1,0,1,0,6,0,6,0,316.59575969999423,,,,,,,,,,1,1,2024-06-28_18h32.39.157,digit_span,2023.2.3,60.048663436895694,2024-06-28 18h32.53.941354 +0200,
2,0,2,0,1,0,1,0,7,0,7,0,317.695772499952,,,18:38:12.453174,,,,,,,1,1,2024-06-28_18h32.39.157,digit_span,2023.2.3,60.048663436895694,2024-06-28 18h32.53.941354 +0200,
2,0,2,0,1,0,1,0,,,,,,,,,"[2, 6, 5, 7, 8, 1, 3, 0]",2834200 ,space,8.949586600007024,None,18:38:21.518301,1,1,2024-06-28_18h32.39.157,digit_span,2023.2.3,60.048663436895694,2024-06-28 18h32.53.941354 +0200,
2,0,2,0,2,0,2,0,0,0,0,0,328.7589291999466,,18:38:21.518301,,,,,,,,1,1,2024-06-28_18h32.39.157,digit_span,2023.2.3,60.048663436895694,2024-06-28 18h32.53.941354 +0200,
2,0,2,0,2,0,2,0,1,0,1,0,329.8581907999469,,,,,,,,,,1,1,2024-06-28_18h32.39.157,digit_span,2023.2.3,60.048663436895694,2024-06-28 18h32.53.941354 +0200,
2,0,2,0,2,0,2,0,2,0,2,0,330.9579993999796,,,,,,,,,,1,1,2024-06-28_18h32.39.157,digit_span,2023.2.3,60.048663436895694,2024-06-28 18h32.53.941354 +0200,
2,0,2,0,2,0,2,0,3,0,3,0,332.0580332999816,,,,,,,,,,1,1,2024-06-28_18h32.39.157,digit_span,2023.2.3,60.048663436895694,2024-06-28 18h32.53.941354 +0200,
2,0,2,0,2,0,2,0,4,0,4,0,333.1573425999959,,,,,,,,,,1,1,2024-06-28_18h32.39.157,digit_span,2023.2.3,60.048663436895694,2024-06-28 18h32.53.941354 +0200,
2,0,2,0,2,0,2,0,5,0,5,0,334.2573985999916,,,,,,,,,,1,1,2024-06-28_18h32.39.157,digit_span,2023.2.3,60.048663436895694,2024-06-28 18h32.53.941354 +0200,
2,0,2,0,2,0,2,0,6,0,6,0,335.35951429995475,,,,,,,,,,1,1,2024-06-28_18h32.39.157,digit_span,2023.2.3,60.048663436895694,2024-06-28 18h32.53.941354 +0200,
2,0,2,0,2,0,2,0,7,0,7,0,336.4727381999837,,,18:38:31.229029,,,,,,,1,1,2024-06-28_18h32.39.157,digit_span,2023.2.3,60.048663436895694,2024-06-28 18h32.53.941354 +0200,
2,0,2,0,2,0,2,0,,,,,,,,,"[8, 5, 1, 0, 7, 4, 9, 6]",85107496,space,10.193037400022149,None,18:38:41.527659,1,1,2024-06-28_18h32.39.157,digit_span,2023.2.3,60.048663436895694,2024-06-28 18h32.53.941354 +0200,
2,0,2,0,3,0,3,0,0,0,0,0,348.76937329996144,,18:38:41.528892,,,,,,,,1,1,2024-06-28_18h32.39.157,digit_span,2023.2.3,60.048663436895694,2024-06-28 18h32.53.941354 +0200,
2,0,2,0,3,0,3,0,1,0,1,0,349.87390859995503,,,,,,,,,,1,1,2024-06-28_18h32.39.157,digit_span,2023.2.3,60.048663436895694,2024-06-28 18h32.53.941354 +0200,
2,0,2,0,3,0,3,0,2,0,2,0,350.98813699994935,,,,,,,,,,1,1,2024-06-28_18h32.39.157,digit_span,2023.2.3,60.048663436895694,2024-06-28 18h32.53.941354 +0200,
2,0,2,0,3,0,3,0,3,0,3,0,352.0848883999861,,,,,,,,,,1,1,2024-06-28_18h32.39.157,digit_span,2023.2.3,60.048663436895694,2024-06-28 18h32.53.941354 +0200,
2,0,2,0,3,0,3,0,4,0,4,0,353.1876454000012,,,,,,,,,,1,1,2024-06-28_18h32.39.157,digit_span,2023.2.3,60.048663436895694,2024-06-28 18h32.53.941354 +0200,
2,0,2,0,3,0,3,0,5,0,5,0,354.2865559999482,,,,,,,,,,1,1,2024-06-28_18h32.39.157,digit_span,2023.2.3,60.048663436895694,2024-06-28 18h32.53.941354 +0200,
2,0,2,0,3,0,3,0,6,0,6,0,355.3846635999507,,,,,,,,,,1,1,2024-06-28_18h32.39.157,digit_span,2023.2.3,60.048663436895694,2024-06-28 18h32.53.941354 +0200,
2,0,2,0,3,0,3,0,7,0,7,0,356.48403130000224,,,18:38:51.240160,,,,,,,1,1,2024-06-28_18h32.39.157,digit_span,2023.2.3,60.048663436895694,2024-06-28 18h32.53.941354 +0200,
2,0,2,0,3,0,3,0,,,,,,,,,"[6, 0, 9, 1, 7, 4, 3, 5]",60917431,space,12.340041500050575,None,18:39:03.690559,1,1,2024-06-28_18h32.39.157,digit_span,2023.2.3,60.048663436895694,2024-06-28 18h32.53.941354 +0200,
2,0,2,0,4,0,4,0,0,0,0,0,370.9288675999851,,18:39:03.692079,,,,,,,,1,1,2024-06-28_18h32.39.157,digit_span,2023.2.3,60.048663436895694,2024-06-28 18h32.53.941354 +0200,
2,0,2,0,4,0,4,0,1,0,1,0,372.0329878999619,,,,,,,,,,1,1,2024-06-28_18h32.39.157,digit_span,2023.2.3,60.048663436895694,2024-06-28 18h32.53.941354 +0200,
2,0,2,0,4,0,4,0,2,0,2,0,373.14804849994835,,,,,,,,,,1,1,2024-06-28_18h32.39.157,digit_span,2023.2.3,60.048663436895694,2024-06-28 18h32.53.941354 +0200,
2,0,2,0,4,0,4,0,3,0,3,0,374.2449697999982,,,,,,,,,,1,1,2024-06-28_18h32.39.157,digit_span,2023.2.3,60.048663436895694,2024-06-28 18h32.53.941354 +0200,
2,0,2,0,4,0,4,0,4,0,4,0,375.3449277000036,,,,,,,,,,1,1,2024-06-28_18h32.39.157,digit_span,2023.2.3,60.048663436895694,2024-06-28 18h32.53.941354 +0200,
2,0,2,0,4,0,4,0,5,0,5,0,376.4456943999976,,,,,,,,,,1,1,2024-06-28_18h32.39.157,digit_span,2023.2.3,60.048663436895694,2024-06-28 18h32.53.941354 +0200,
2,0,2,0,4,0,4,0,6,0,6,0,377.54624169995077,,,,,,,,,,1,1,2024-06-28_18h32.39.157,digit_span,2023.2.3,60.048663436895694,2024-06-28 18h32.53.941354 +0200,
2,0,2,0,4,0,4,0,7,0,7,0,378.64346749999095,,,18:39:13.399309,,,,,,,1,1,2024-06-28_18h32.39.157,digit_span,2023.2.3,60.048663436895694,2024-06-28 18h32.53.941354 +0200,
2,0,2,0,4,0,4,0,,,,,,,,,"[5, 0, 4, 8, 1, 9, 6, 3]",50481963 ,space,8.917473199951928,None,18:39:22.431964,1,1,2024-06-28_18h32.39.157,digit_span,2023.2.3,60.048663436895694,2024-06-28 18h32.53.941354 +0200,
2,0,2,0,5,0,5,0,0,0,0,0,389.67287359997863,,18:39:22.432970,,,,,,,,1,1,2024-06-28_18h32.39.157,digit_span,2023.2.3,60.048663436895694,2024-06-28 18h32.53.941354 +0200,
2,0,2,0,5,0,5,0,1,0,1,0,390.7724610999576,,,,,,,,,,1,1,2024-06-28_18h32.39.157,digit_span,2023.2.3,60.048663436895694,2024-06-28 18h32.53.941354 +0200,
2,0,2,0,5,0,5,0,2,0,2,0,391.87188140000217,,,,,,,,,,1,1,2024-06-28_18h32.39.157,digit_span,2023.2.3,60.048663436895694,2024-06-28 18h32.53.941354 +0200,
2,0,2,0,5,0,5,0,3,0,3,0,392.9734083999647,,,,,,,,,,1,1,2024-06-28_18h32.39.157,digit_span,2023.2.3,60.048663436895694,2024-06-28 18h32.53.941354 +0200,
2,0,2,0,5,0,5,0,4,0,4,0,394.0878724999493,,,,,,,,,,1,1,2024-06-28_18h32.39.157,digit_span,2023.2.3,60.048663436895694,2024-06-28 18h32.53.941354 +0200,
2,0,2,0,5,0,5,0,5,0,5,0,395.1901607000036,,,,,,,,,,1,1,2024-06-28_18h32.39.157,digit_span,2023.2.3,60.048663436895694,2024-06-28 18h32.53.941354 +0200,
2,0,2,0,5,0,5,0,6,0,6,0,396.2876311999862,,,,,,,,,,1,1,2024-06-28_18h32.39.157,digit_span,2023.2.3,60.048663436895694,2024-06-28 18h32.53.941354 +0200,
2,0,2,0,5,0,5,0,7,0,7,0,397.4329931999673,,,18:39:32.144041,,,,,,,1,1,2024-06-28_18h32.39.157,digit_span,2023.2.3,60.048663436895694,2024-06-28 18h32.53.941354 +0200,
2,0,2,0,5,0,5,0,,,,,,,,,"[8, 3, 9, 6, 2, 5, 0, 1]",83962051 ,space,7.022904900019057,None,18:39:39.281623,1,1,2024-06-28_18h32.39.157,digit_span,2023.2.3,60.048663436895694,2024-06-28 18h32.53.941354 +0200,
2,0,2,0,6,0,6,0,0,0,0,0,406.51761759998044,,18:39:39.282713,,,,,,,,1,1,2024-06-28_18h32.39.157,digit_span,2023.2.3,60.048663436895694,2024-06-28 18h32.53.941354 +0200,
2,0,2,0,6,0,6,0,1,0,1,0,407.6172260000021,,,,,,,,,,1,1,2024-06-28_18h32.39.157,digit_span,2023.2.3,60.048663436895694,2024-06-28 18h32.53.941354 +0200,
2,0,2,0,6,0,6,0,2,0,2,0,408.7171388999559,,,,,,,,,,1,1,2024-06-28_18h32.39.157,digit_span,2023.2.3,60.048663436895694,2024-06-28 18h32.53.941354 +0200,
2,0,2,0,6,0,6,0,3,0,3,0,409.8166582999984,,,,,,,,,,1,1,2024-06-28_18h32.39.157,digit_span,2023.2.3,60.048663436895694,2024-06-28 18h32.53.941354 +0200,
2,0,2,0,6,0,6,0,4,0,4,0,410.9162944999989,,,,,,,,,,1,1,2024-06-28_18h32.39.157,digit_span,2023.2.3,60.048663436895694,2024-06-28 18h32.53.941354 +0200,
2,0,2,0,6,0,6,0,5,0,5,0,412.0160588999861,,,,,,,,,,1,1,2024-06-28_18h32.39.157,digit_span,2023.2.3,60.048663436895694,2024-06-28 18h32.53.941354 +0200,
2,0,2,0,6,0,6,0,6,0,6,0,413.1156844999641,,,,,,,,,,1,1,2024-06-28_18h32.39.157,digit_span,2023.2.3,60.048663436895694,2024-06-28 18h32.53.941354 +0200,
2,0,2,0,6,0,6,0,7,0,7,0,414.2160816999967,,,18:39:48.973917,,,,,,,1,1,2024-06-28_18h32.39.157,digit_span,2023.2.3,60.048663436895694,2024-06-28 18h32.53.941354 +0200,
2,0,2,0,6,0,6,0,,,,,,,,,"[4, 2, 5, 0, 8, 6, 7, 9]",5089023,space,3.109458699997049,None,18:39:52.221058,1,1,2024-06-28_18h32.39.157,digit_span,2023.2.3,60.048663436895694,2024-06-28 18h32.53.941354 +0200,
2,0,2,0,7,0,7,0,0,0,0,0,419.4632625999511,,18:39:52.221058,,,,,,,,1,1,2024-06-28_18h32.39.157,digit_span,2023.2.3,60.048663436895694,2024-06-28 18h32.53.941354 +0200,
2,0,2,0,7,0,7,0,1,0,1,0,420.56288769998355,,,,,,,,,,1,1,2024-06-28_18h32.39.157,digit_span,2023.2.3,60.048663436895694,2024-06-28 18h32.53.941354 +0200,
2,0,2,0,7,0,7,0,2,0,2,0,421.6637524999678,,,,,,,,,,1,1,2024-06-28_18h32.39.157,digit_span,2023.2.3,60.048663436895694,2024-06-28 18h32.53.941354 +0200,
2,0,2,0,7,0,7,0,3,0,3,0,422.77968429995235,,,,,,,,,,1,1,2024-06-28_18h32.39.157,digit_span,2023.2.3,60.048663436895694,2024-06-28 18h32.53.941354 +0200,
2,0,2,0,7,0,7,0,4,0,4,0,423.8785763999913,,,,,,,,,,1,1,2024-06-28_18h32.39.157,digit_span,2023.2.3,60.048663436895694,2024-06-28 18h32.53.941354 +0200,
2,0,2,0,7,0,7,0,5,0,5,0,424.97822749998886,,,,,,,,,,1,1,2024-06-28_18h32.39.157,digit_span,2023.2.3,60.048663436895694,2024-06-28 18h32.53.941354 +0200,
2,0,2,0,7,0,7,0,6,0,6,0,426.0785906999954,,,,,,,,,,1,1,2024-06-28_18h32.39.157,digit_span,2023.2.3,60.048663436895694,2024-06-28 18h32.53.941354 +0200,
2,0,2,0,7,0,7,0,7,0,7,0,427.1786385999876,,,18:40:01.933399,,,,,,,1,1,2024-06-28_18h32.39.157,digit_span,2023.2.3,60.048663436895694,2024-06-28 18h32.53.941354 +0200,
2,0,2,0,7,0,7,0,,,,,,,,,"[0, 9, 6, 1, 8, 5, 4, 7]",09618540 ,space,11.28582049999386,None,18:40:13.332996,1,1,2024-06-28_18h32.39.157,digit_span,2023.2.3,60.048663436895694,2024-06-28 18h32.53.941354 +0200,
2,0,2,0,8,0,8,0,0,0,0,0,440.5742350999499,,18:40:13.333994,,,,,,,,1,1,2024-06-28_18h32.39.157,digit_span,2023.2.3,60.048663436895694,2024-06-28 18h32.53.941354 +0200,
2,0,2,0,8,0,8,0,1,0,1,0,441.67784449999453,,,,,,,,,,1,1,2024-06-28_18h32.39.157,digit_span,2023.2.3,60.048663436895694,2024-06-28 18h32.53.941354 +0200,
2,0,2,0,8,0,8,0,2,0,2,0,442.7913322999957,,,,,,,,,,1,1,2024-06-28_18h32.39.157,digit_span,2023.2.3,60.048663436895694,2024-06-28 18h32.53.941354 +0200,
2,0,2,0,8,0,8,0,3,0,3,0,443.88945149997016,,,,,,,,,,1,1,2024-06-28_18h32.39.157,digit_span,2023.2.3,60.048663436895694,2024-06-28 18h32.53.941354 +0200,
2,0,2,0,8,0,8,0,4,0,4,0,444.9887295999797,,,,,,,,,,1,1,2024-06-28_18h32.39.157,digit_span,2023.2.3,60.048663436895694,2024-06-28 18h32.53.941354 +0200,
2,0,2,0,8,0,8,0,5,0,5,0,446.0895973999868,,,,,,,,,,1,1,2024-06-28_18h32.39.157,digit_span,2023.2.3,60.048663436895694,2024-06-28 18h32.53.941354 +0200,
2,0,2,0,8,0,8,0,6,0,6,0,447.1882895999588,,,,,,,,,,1,1,2024-06-28_18h32.39.157,digit_span,2023.2.3,60.048663436895694,2024-06-28 18h32.53.941354 +0200,
2,0,2,0,8,0,8,0,7,0,7,0,448.2880612000008,,,18:40:23.044302,,,,,,,1,1,2024-06-28_18h32.39.157,digit_span,2023.2.3,60.048663436895694,2024-06-28 18h32.53.941354 +0200,
2,0,2,0,8,0,8,0,,,,,,,,,"[7, 3, 8, 0, 5, 6, 9, 2]",73809562 ,space,6.6633412999799475,None,18:40:29.829264,1,1,2024-06-28_18h32.39.157,digit_span,2023.2.3,60.048663436895694,2024-06-28 18h32.53.941354 +0200,
2,0,2,0,9,0,9,0,0,0,0,0,457.0685996999964,,18:40:29.829264,,,,,,,,1,1,2024-06-28_18h32.39.157,digit_span,2023.2.3,60.048663436895694,2024-06-28 18h32.53.941354 +0200,
2,0,2,0,9,0,9,0,1,0,1,0,458.1681580999866,,,,,,,,,,1,1,2024-06-28_18h32.39.157,digit_span,2023.2.3,60.048663436895694,2024-06-28 18h32.53.941354 +0200,
2,0,2,0,9,0,9,0,2,0,2,0,459.2710201999871,,,,,,,,,,1,1,2024-06-28_18h32.39.157,digit_span,2023.2.3,60.048663436895694,2024-06-28 18h32.53.941354 +0200,
2,0,2,0,9,0,9,0,3,0,3,0,460.38362859998597,,,,,,,,,,1,1,2024-06-28_18h32.39.157,digit_span,2023.2.3,60.048663436895694,2024-06-28 18h32.53.941354 +0200,
2,0,2,0,9,0,9,0,4,0,4,0,461.4840196999721,,,,,,,,,,1,1,2024-06-28_18h32.39.157,digit_span,2023.2.3,60.048663436895694,2024-06-28 18h32.53.941354 +0200,
2,0,2,0,9,0,9,0,5,0,5,0,462.58487189997686,,,,,,,,,,1,1,2024-06-28_18h32.39.157,digit_span,2023.2.3,60.048663436895694,2024-06-28 18h32.53.941354 +0200,
2,0,2,0,9,0,9,0,6,0,6,0,463.6866117999889,,,,,,,,,,1,1,2024-06-28_18h32.39.157,digit_span,2023.2.3,60.048663436895694,2024-06-28 18h32.53.941354 +0200,
2,0,2,0,9,0,9,0,7,0,7,0,464.785529899993,,,18:40:39.538437,,,,,,,1,1,2024-06-28_18h32.39.157,digit_span,2023.2.3,60.048663436895694,2024-06-28 18h32.53.941354 +0200,
2,0,2,0,9,0,9,0,,,,,,,,,"[6, 4, 3, 8, 9, 1, 2, 5]",64389152 ,space,8.42277030000696,None,18:40:48.081610,1,1,2024-06-28_18h32.39.157,digit_span,2023.2.3,60.048663436895694,2024-06-28 18h32.53.941354 +0200,
2,0,2,0,10,0,10,0,0,0,0,0,475.329101899988,,18:40:48.082605,,,,,,,,1,1,2024-06-28_18h32.39.157,digit_span,2023.2.3,60.048663436895694,2024-06-28 18h32.53.941354 +0200,
2,0,2,0,10,0,10,0,1,0,1,0,476.428523199982,,,,,,,,,,1,1,2024-06-28_18h32.39.157,digit_span,2023.2.3,60.048663436895694,2024-06-28 18h32.53.941354 +0200,
2,0,2,0,10,0,10,0,2,0,2,0,477.5285640999791,,,,,,,,,,1,1,2024-06-28_18h32.39.157,digit_span,2023.2.3,60.048663436895694,2024-06-28 18h32.53.941354 +0200,
2,0,2,0,10,0,10,0,3,0,3,0,478.6279395999736,,,,,,,,,,1,1,2024-06-28_18h32.39.157,digit_span,2023.2.3,60.048663436895694,2024-06-28 18h32.53.941354 +0200,
2,0,2,0,10,0,10,0,4,0,4,0,479.727786799951,,,,,,,,,,1,1,2024-06-28_18h32.39.157,digit_span,2023.2.3,60.048663436895694,2024-06-28 18h32.53.941354 +0200,
2,0,2,0,10,0,10,0,5,0,5,0,480.8316435999586,,,,,,,,,,1,1,2024-06-28_18h32.39.157,digit_span,2023.2.3,60.048663436895694,2024-06-28 18h32.53.941354 +0200,
2,0,2,0,10,0,10,0,6,0,6,0,481.9308688999736,,,,,,,,,,1,1,2024-06-28_18h32.39.157,digit_span,2023.2.3,60.048663436895694,2024-06-28 18h32.53.941354 +0200,
2,0,2,0,10,0,10,0,7,0,7,0,483.02665639994666,,,18:40:57.783857,,,,,,,1,1,2024-06-28_18h32.39.157,digit_span,2023.2.3,60.048663436895694,2024-06-28 18h32.53.941354 +0200,
2,0,2,0,10,0,10,0,,,,,,,,,"[0, 7, 3, 8, 4, 1, 2, 6]",07384126,space,7.602847300004214,None,18:41:05.498938,1,1,2024-06-28_18h32.39.157,digit_span,2023.2.3,60.048663436895694,2024-06-28 18h32.53.941354 +0200,
2,0,2,0,11,0,11,0,0,0,0,0,492.74030999996467,,18:41:05.498938,,,,,,,,1,1,2024-06-28_18h32.39.157,digit_span,2023.2.3,60.048663436895694,2024-06-28 18h32.53.941354 +0200,
2,0,2,0,11,0,11,0,1,0,1,0,493.84005529998103,,,,,,,,,,1,1,2024-06-28_18h32.39.157,digit_span,2023.2.3,60.048663436895694,2024-06-28 18h32.53.941354 +0200,
2,0,2,0,11,0,11,0,2,0,2,0,494.94019159994787,,,,,,,,,,1,1,2024-06-28_18h32.39.157,digit_span,2023.2.3,60.048663436895694,2024-06-28 18h32.53.941354 +0200,
2,0,2,0,11,0,11,0,3,0,3,0,496.03976689995034,,,,,,,,,,1,1,2024-06-28_18h32.39.157,digit_span,2023.2.3,60.048663436895694,2024-06-28 18h32.53.941354 +0200,
2,0,2,0,11,0,11,0,4,0,4,0,497.14035659999354,,,,,,,,,,1,1,2024-06-28_18h32.39.157,digit_span,2023.2.3,60.048663436895694,2024-06-28 18h32.53.941354 +0200,
2,0,2,0,11,0,11,0,5,0,5,0,498.2554771999712,,,,,,,,,,1,1,2024-06-28_18h32.39.157,digit_span,2023.2.3,60.048663436895694,2024-06-28 18h32.53.941354 +0200,
2,0,2,0,11,0,11,0,6,0,6,0,499.35559819999617,,,,,,,,,,1,1,2024-06-28_18h32.39.157,digit_span,2023.2.3,60.048663436895694,2024-06-28 18h32.53.941354 +0200,
2,0,2,0,11,0,11,0,7,0,7,0,500.45460559998173,,,18:41:15.211197,,,,,,,1,1,2024-06-28_18h32.39.157,digit_span,2023.2.3,60.048663436895694,2024-06-28 18h32.53.941354 +0200,
2,0,2,0,11,0,11,0,,,,,,,,,"[7, 2, 5, 0, 9, 8, 6, 4]",72502345,space,6.67219719995046,None,18:41:21.994104,1,1,2024-06-28_18h32.39.157,digit_span,2023.2.3,60.048663436895694,2024-06-28 18h32.53.941354 +0200,
2,0,2,0,12,0,12,0,0,0,0,0,509.2348610999761,,18:41:21.995117,,,,,,,,1,1,2024-06-28_18h32.39.157,digit_span,2023.2.3,60.048663436895694,2024-06-28 18h32.53.941354 +0200,
2,0,2,0,12,0,12,0,1,0,1,0,510.3387662000023,,,,,,,,,,1,1,2024-06-28_18h32.39.157,digit_span,2023.2.3,60.048663436895694,2024-06-28 18h32.53.941354 +0200,
2,0,2,0,12,0,12,0,2,0,2,0,511.4553124999511,,,,,,,,,,1,1,2024-06-28_18h32.39.157,digit_span,2023.2.3,60.048663436895694,2024-06-28 18h32.53.941354 +0200,
2,0,2,0,12,0,12,0,3,0,3,0,512.5537814999698,,,,,,,,,,1,1,2024-06-28_18h32.39.157,digit_span,2023.2.3,60.048663436895694,2024-06-28 18h32.53.941354 +0200,
2,0,2,0,12,0,12,0,4,0,4,0,513.6530898999772,,,,,,,,,,1,1,2024-06-28_18h32.39.157,digit_span,2023.2.3,60.048663436895694,2024-06-28 18h32.53.941354 +0200,
2,0,2,0,12,0,12,0,5,0,5,0,514.7539966999902,,,,,,,,,,1,1,2024-06-28_18h32.39.157,digit_span,2023.2.3,60.048663436895694,2024-06-28 18h32.53.941354 +0200,
2,0,2,0,12,0,12,0,6,0,6,0,515.8514511999674,,,,,,,,,,1,1,2024-06-28_18h32.39.157,digit_span,2023.2.3,60.048663436895694,2024-06-28 18h32.53.941354 +0200,
2,0,2,0,12,0,12,0,7,0,7,0,516.94972959999,,,18:41:31.705681,,,,,,,1,1,2024-06-28_18h32.39.157,digit_span,2023.2.3,60.048663436895694,2024-06-28 18h32.53.941354 +0200,
2,0,2,0,12,0,12,0,,,,,,,,,"[2, 1, 0, 6, 9, 8, 7, 3]",21069871,space,10.74623900000006,None,18:41:42.563612,1,1,2024-06-28_18h32.39.157,digit_span,2023.2.3,60.048663436895694,2024-06-28 18h32.53.941354 +0200,
2,0,2,0,13,0,13,0,0,0,0,0,529.8121233999846,,18:41:42.564894,,,,,,,,1,1,2024-06-28_18h32.39.157,digit_span,2023.2.3,60.048663436895694,2024-06-28 18h32.53.941354 +0200,
2,0,2,0,13,0,13,0,1,0,1,0,530.9116466999985,,,,,,,,,,1,1,2024-06-28_18h32.39.157,digit_span,2023.2.3,60.048663436895694,2024-06-28 18h32.53.941354 +0200,
,,,,,,,,,,,,532.0117250999901,,,,,,,,,,,,,,,,,
