cond.thisRepN,cond.thisTrialN,cond.thisN,cond.thisIndex,trials.thisRepN,trials.thisTrialN,trials.thisN,trials.thisIndex,digit_rep.thisRepN,digit_rep.thisTrialN,digit_rep.thisN,digit_rep.thisIndex,thisRow.t,notes,sequence_started,sequence_ended,digit_sequence,result_box.text,confirm_input.keys,confirm_input.rt,confirm_input.duration,input_ended,participant,order,date,expName,psychopyVersion,frameRate,expStart,
,,,,,,,,,,,,,,,,,,,,,,605495,6,2024-06-23_20h15.30.218,digit_span,2024.1.4,None,2024-06-23 20h16.25.730001 +0200,
0,0,0,0,0,0,0,0,0,0,0,0,5.294486599974334,,20:16:29.958001,,,,,,,,605495,6,2024-06-23_20h15.30.218,digit_span,2024.1.4,None,2024-06-23 20h16.25.730001 +0200,
0,0,0,0,0,0,0,0,1,0,1,0,6.363992300000973,,,,,,,,,,605495,6,2024-06-23_20h15.30.218,digit_span,2024.1.4,None,2024-06-23 20h16.25.730001 +0200,
0,0,0,0,0,0,0,0,2,0,2,0,7.465160000021569,,,,,,,,,,605495,6,2024-06-23_20h15.30.218,digit_span,2024.1.4,None,2024-06-23 20h16.25.730001 +0200,
0,0,0,0,0,0,0,0,3,0,3,0,8.566158399975393,,,,,,,,,,605495,6,2024-06-23_20h15.30.218,digit_span,2024.1.4,None,2024-06-23 20h16.25.730001 +0200,
0,0,0,0,0,0,0,0,4,0,4,0,9.666836099990178,,,,,,,,,,605495,6,2024-06-23_20h15.30.218,digit_span,2024.1.4,None,2024-06-23 20h16.25.730001 +0200,
0,0,0,0,0,0,0,0,5,0,5,0,10.768170299998019,,,,,,,,,,605495,6,2024-06-23_20h15.30.218,digit_span,2024.1.4,None,2024-06-23 20h16.25.730001 +0200,
0,0,0,0,0,0,0,0,6,0,6,0,11.869628800021019,,,,,,,,,,605495,6,2024-06-23_20h15.30.218,digit_span,2024.1.4,None,2024-06-23 20h16.25.730001 +0200,
0,0,0,0,0,0,0,0,7,0,7,0,12.971206100017298,,,20:16:39.667195,,,,,,,605495,6,2024-06-23_20h15.30.218,digit_span,2024.1.4,None,2024-06-23 20h16.25.730001 +0200,
0,0,0,0,0,0,0,0,,,,,,,,,"[4, 5, 3, 1, 0, 7, 9, 6]",45310796 ,space,16.219841599988285,None,20:16:56.002693,605495,6,2024-06-23_20h15.30.218,digit_span,2024.1.4,None,2024-06-23 20h16.25.730001 +0200,
0,0,0,0,1,0,1,0,0,0,0,0,31.307440000004135,,20:16:56.002693,,,,,,,,605495,6,2024-06-23_20h15.30.218,digit_span,2024.1.4,None,2024-06-23 20h16.25.730001 +0200,
0,0,0,0,1,0,1,0,1,0,1,0,32.40795750002144,,,,,,,,,,605495,6,2024-06-23_20h15.30.218,digit_span,2024.1.4,None,2024-06-23 20h16.25.730001 +0200,
0,0,0,0,1,0,1,0,2,0,2,0,33.51068110001506,,,,,,,,,,605495,6,2024-06-23_20h15.30.218,digit_span,2024.1.4,None,2024-06-23 20h16.25.730001 +0200,
0,0,0,0,1,0,1,0,3,0,3,0,34.61162430001423,,,,,,,,,,605495,6,2024-06-23_20h15.30.218,digit_span,2024.1.4,None,2024-06-23 20h16.25.730001 +0200,
0,0,0,0,1,0,1,0,4,0,4,0,35.71147879998898,,,,,,,,,,605495,6,2024-06-23_20h15.30.218,digit_span,2024.1.4,None,2024-06-23 20h16.25.730001 +0200,
0,0,0,0,1,0,1,0,5,0,5,0,36.81359999999404,,,,,,,,,,605495,6,2024-06-23_20h15.30.218,digit_span,2024.1.4,None,2024-06-23 20h16.25.730001 +0200,
0,0,0,0,1,0,1,0,6,0,6,0,37.914849399996456,,,,,,,,,,605495,6,2024-06-23_20h15.30.218,digit_span,2024.1.4,None,2024-06-23 20h16.25.730001 +0200,
0,0,0,0,1,0,1,0,7,0,7,0,39.01798790000612,,,20:17:05.712207,,,,,,,605495,6,2024-06-23_20h15.30.218,digit_span,2024.1.4,None,2024-06-23 20h16.25.730001 +0200,
0,0,0,0,1,0,1,0,,,,,,,,,"[3, 4, 2, 6, 0, 8, 5, 1]",34260851,space,4.527306000003591,None,20:17:10.353727,605495,6,2024-06-23_20h15.30.218,digit_span,2024.1.4,None,2024-06-23 20h16.25.730001 +0200,
0,0,0,0,2,0,2,0,0,0,0,0,45.65683160000481,,20:17:10.353727,,,,,,,,605495,6,2024-06-23_20h15.30.218,digit_span,2024.1.4,None,2024-06-23 20h16.25.730001 +0200,
0,0,0,0,2,0,2,0,1,0,1,0,46.7569362000213,,,,,,,,,,605495,6,2024-06-23_20h15.30.218,digit_span,2024.1.4,None,2024-06-23 20h16.25.730001 +0200,
0,0,0,0,2,0,2,0,2,0,2,0,47.864350499992725,,,,,,,,,,605495,6,2024-06-23_20h15.30.218,digit_span,2024.1.4,None,2024-06-23 20h16.25.730001 +0200,
0,0,0,0,2,0,2,0,3,0,3,0,48.95947960001649,,,,,,,,,,605495,6,2024-06-23_20h15.30.218,digit_span,2024.1.4,None,2024-06-23 20h16.25.730001 +0200,
0,0,0,0,2,0,2,0,4,0,4,0,50.06205750000663,,,,,,,,,,605495,6,2024-06-23_20h15.30.218,digit_span,2024.1.4,None,2024-06-23 20h16.25.730001 +0200,
0,0,0,0,2,0,2,0,5,0,5,0,51.16261930001201,,,,,,,,,,605495,6,2024-06-23_20h15.30.218,digit_span,2024.1.4,None,2024-06-23 20h16.25.730001 +0200,
0,0,0,0,2,0,2,0,6,0,6,0,52.264138099970296,,,,,,,,,,605495,6,2024-06-23_20h15.30.218,digit_span,2024.1.4,None,2024-06-23 20h16.25.730001 +0200,
0,0,0,0,2,0,2,0,7,0,7,0,53.367111400002614,,,20:17:20.061948,,,,,,,605495,6,2024-06-23_20h15.30.218,digit_span,2024.1.4,None,2024-06-23 20h16.25.730001 +0200,
0,0,0,0,2,0,2,0,,,,,,,,,"[3, 5, 6, 2, 4, 9, 8, 0]",35624980 ,space,4.130155200022273,None,20:17:24.309423,605495,6,2024-06-23_20h15.30.218,digit_span,2024.1.4,None,2024-06-23 20h16.25.730001 +0200,
0,0,0,0,3,0,3,0,0,0,0,0,59.62249530002009,,20:17:24.309423,,,,,,,,605495,6,2024-06-23_20h15.30.218,digit_span,2024.1.4,None,2024-06-23 20h16.25.730001 +0200,
0,0,0,0,3,0,3,0,1,0,1,0,60.72329749999335,,,,,,,,,,605495,6,2024-06-23_20h15.30.218,digit_span,2024.1.4,None,2024-06-23 20h16.25.730001 +0200,
0,0,0,0,3,0,3,0,2,0,2,0,61.82373549998738,,,,,,,,,,605495,6,2024-06-23_20h15.30.218,digit_span,2024.1.4,None,2024-06-23 20h16.25.730001 +0200,
0,0,0,0,3,0,3,0,3,0,3,0,62.9251642000163,,,,,,,,,,605495,6,2024-06-23_20h15.30.218,digit_span,2024.1.4,None,2024-06-23 20h16.25.730001 +0200,
0,0,0,0,3,0,3,0,4,0,4,0,64.02758549997816,,,,,,,,,,605495,6,2024-06-23_20h15.30.218,digit_span,2024.1.4,None,2024-06-23 20h16.25.730001 +0200,
0,0,0,0,3,0,3,0,5,0,5,0,65.12831579998601,,,,,,,,,,605495,6,2024-06-23_20h15.30.218,digit_span,2024.1.4,None,2024-06-23 20h16.25.730001 +0200,
0,0,0,0,3,0,3,0,6,0,6,0,66.22960109997075,,,,,,,,,,605495,6,2024-06-23_20h15.30.218,digit_span,2024.1.4,None,2024-06-23 20h16.25.730001 +0200,
0,0,0,0,3,0,3,0,7,0,7,0,67.31301689997781,,,20:17:34.011282,,,,,,,605495,6,2024-06-23_20h15.30.218,digit_span,2024.1.4,None,2024-06-23 20h16.25.730001 +0200,
0,0,0,0,3,0,3,0,,,,,,,,,"[3, 9, 0, 5, 2, 4, 8, 7]",39052487,space,16.996863799984567,None,20:17:51.113971,605495,6,2024-06-23_20h15.30.218,digit_span,2024.1.4,None,2024-06-23 20h16.25.730001 +0200,
0,0,0,0,4,0,4,0,0,0,0,0,86.41805510001723,,20:17:51.113971,,,,,,,,605495,6,2024-06-23_20h15.30.218,digit_span,2024.1.4,None,2024-06-23 20h16.25.730001 +0200,
0,0,0,0,4,0,4,0,1,0,1,0,87.5200662999996,,,,,,,,,,605495,6,2024-06-23_20h15.30.218,digit_span,2024.1.4,None,2024-06-23 20h16.25.730001 +0200,
0,0,0,0,4,0,4,0,2,0,2,0,88.6205080000218,,,,,,,,,,605495,6,2024-06-23_20h15.30.218,digit_span,2024.1.4,None,2024-06-23 20h16.25.730001 +0200,
0,0,0,0,4,0,4,0,3,0,3,0,89.72139849996893,,,,,,,,,,605495,6,2024-06-23_20h15.30.218,digit_span,2024.1.4,None,2024-06-23 20h16.25.730001 +0200,
0,0,0,0,4,0,4,0,4,0,4,0,90.82285519997822,,,,,,,,,,605495,6,2024-06-23_20h15.30.218,digit_span,2024.1.4,None,2024-06-23 20h16.25.730001 +0200,
0,0,0,0,4,0,4,0,5,0,5,0,91.92374990001554,,,,,,,,,,605495,6,2024-06-23_20h15.30.218,digit_span,2024.1.4,None,2024-06-23 20h16.25.730001 +0200,
0,0,0,0,4,0,4,0,6,0,6,0,93.02538900001673,,,,,,,,,,605495,6,2024-06-23_20h15.30.218,digit_span,2024.1.4,None,2024-06-23 20h16.25.730001 +0200,
0,0,0,0,4,0,4,0,7,0,7,0,94.12867309997091,,,20:18:00.827126,,,,,,,605495,6,2024-06-23_20h15.30.218,digit_span,2024.1.4,None,2024-06-23 20h16.25.730001 +0200,
0,0,0,0,4,0,4,0,,,,,,,,,"[5, 6, 4, 7, 1, 0, 2, 8]",56471028,space,4.20725700003095,None,20:18:05.147083,605495,6,2024-06-23_20h15.30.218,digit_span,2024.1.4,None,2024-06-23 20h16.25.730001 +0200,
0,0,0,0,5,0,5,0,0,0,0,0,100.44952409999678,,20:18:05.147860,,,,,,,,605495,6,2024-06-23_20h15.30.218,digit_span,2024.1.4,None,2024-06-23 20h16.25.730001 +0200,
0,0,0,0,5,0,5,0,1,0,1,0,101.55171759997029,,,,,,,,,,605495,6,2024-06-23_20h15.30.218,digit_span,2024.1.4,None,2024-06-23 20h16.25.730001 +0200,
0,0,0,0,5,0,5,0,2,0,2,0,102.65278289996786,,,,,,,,,,605495,6,2024-06-23_20h15.30.218,digit_span,2024.1.4,None,2024-06-23 20h16.25.730001 +0200,
0,0,0,0,5,0,5,0,3,0,3,0,103.7539140000008,,,,,,,,,,605495,6,2024-06-23_20h15.30.218,digit_span,2024.1.4,None,2024-06-23 20h16.25.730001 +0200,
0,0,0,0,5,0,5,0,4,0,4,0,104.85578099999111,,,,,,,,,,605495,6,2024-06-23_20h15.30.218,digit_span,2024.1.4,None,2024-06-23 20h16.25.730001 +0200,
0,0,0,0,5,0,5,0,5,0,5,0,105.957290499995,,,,,,,,,,605495,6,2024-06-23_20h15.30.218,digit_span,2024.1.4,None,2024-06-23 20h16.25.730001 +0200,
0,0,0,0,5,0,5,0,6,0,6,0,107.05835269996896,,,,,,,,,,605495,6,2024-06-23_20h15.30.218,digit_span,2024.1.4,None,2024-06-23 20h16.25.730001 +0200,
0,0,0,0,5,0,5,0,7,0,7,0,108.16914800001541,,,20:18:14.855566,,,,,,,605495,6,2024-06-23_20h15.30.218,digit_span,2024.1.4,None,2024-06-23 20h16.25.730001 +0200,
0,0,0,0,5,0,5,0,,,,,,,,,"[7, 6, 1, 9, 5, 3, 2, 8]",76195328,space,13.70278439996764,None,20:18:28.671293,605495,6,2024-06-23_20h15.30.218,digit_span,2024.1.4,None,2024-06-23 20h16.25.730001 +0200,
0,0,0,0,6,0,6,0,0,0,0,0,123.97606879996601,,20:18:28.672215,,,,,,,,605495,6,2024-06-23_20h15.30.218,digit_span,2024.1.4,None,2024-06-23 20h16.25.730001 +0200,
0,0,0,0,6,0,6,0,1,0,1,0,125.07644350000191,,,,,,,,,,605495,6,2024-06-23_20h15.30.218,digit_span,2024.1.4,None,2024-06-23 20h16.25.730001 +0200,
0,0,0,0,6,0,6,0,2,0,2,0,126.17974950000644,,,,,,,,,,605495,6,2024-06-23_20h15.30.218,digit_span,2024.1.4,None,2024-06-23 20h16.25.730001 +0200,
0,0,0,0,6,0,6,0,3,0,3,0,127.28031200001715,,,,,,,,,,605495,6,2024-06-23_20h15.30.218,digit_span,2024.1.4,None,2024-06-23 20h16.25.730001 +0200,
0,0,0,0,6,0,6,0,4,0,4,0,128.380819300015,,,,,,,,,,605495,6,2024-06-23_20h15.30.218,digit_span,2024.1.4,None,2024-06-23 20h16.25.730001 +0200,
0,0,0,0,6,0,6,0,5,0,5,0,129.4817180999671,,,,,,,,,,605495,6,2024-06-23_20h15.30.218,digit_span,2024.1.4,None,2024-06-23 20h16.25.730001 +0200,
0,0,0,0,6,0,6,0,6,0,6,0,130.58288980001817,,,,,,,,,,605495,6,2024-06-23_20h15.30.218,digit_span,2024.1.4,None,2024-06-23 20h16.25.730001 +0200,
0,0,0,0,6,0,6,0,7,0,7,0,131.68494050001027,,,20:18:38.380336,,,,,,,605495,6,2024-06-23_20h15.30.218,digit_span,2024.1.4,None,2024-06-23 20h16.25.730001 +0200,
0,0,0,0,6,0,6,0,,,,,,,,,"[1, 8, 9, 4, 2, 5, 6, 0]",18942560 ,space,3.753781000035815,None,20:18:42.253399,605495,6,2024-06-23_20h15.30.218,digit_span,2024.1.4,None,2024-06-23 20h16.25.730001 +0200,
0,0,0,0,7,0,7,0,0,0,0,0,137.55702359997667,,20:18:42.253399,,,,,,,,605495,6,2024-06-23_20h15.30.218,digit_span,2024.1.4,None,2024-06-23 20h16.25.730001 +0200,
0,0,0,0,7,0,7,0,1,0,1,0,138.6589704999933,,,,,,,,,,605495,6,2024-06-23_20h15.30.218,digit_span,2024.1.4,None,2024-06-23 20h16.25.730001 +0200,
0,0,0,0,7,0,7,0,2,0,2,0,139.75962700002128,,,,,,,,,,605495,6,2024-06-23_20h15.30.218,digit_span,2024.1.4,None,2024-06-23 20h16.25.730001 +0200,
0,0,0,0,7,0,7,0,3,0,3,0,140.86042759998236,,,,,,,,,,605495,6,2024-06-23_20h15.30.218,digit_span,2024.1.4,None,2024-06-23 20h16.25.730001 +0200,
0,0,0,0,7,0,7,0,4,0,4,0,141.96232130000135,,,,,,,,,,605495,6,2024-06-23_20h15.30.218,digit_span,2024.1.4,None,2024-06-23 20h16.25.730001 +0200,
0,0,0,0,7,0,7,0,5,0,5,0,143.06365500000538,,,,,,,,,,605495,6,2024-06-23_20h15.30.218,digit_span,2024.1.4,None,2024-06-23 20h16.25.730001 +0200,
0,0,0,0,7,0,7,0,6,0,6,0,144.16352240002016,,,,,,,,,,605495,6,2024-06-23_20h15.30.218,digit_span,2024.1.4,None,2024-06-23 20h16.25.730001 +0200,
0,0,0,0,7,0,7,0,7,0,7,0,145.26566889998503,,,20:18:51.963040,,,,,,,605495,6,2024-06-23_20h15.30.218,digit_span,2024.1.4,None,2024-06-23 20h16.25.730001 +0200,
0,0,0,0,7,0,7,0,,,,,,,,,"[5, 9, 4, 6, 8, 0, 3, 2]",59468032 ,space,7.013664499972947,None,20:18:59.089323,605495,6,2024-06-23_20h15.30.218,digit_span,2024.1.4,None,2024-06-23 20h16.25.730001 +0200,
0,0,0,0,8,0,8,0,0,0,0,0,154.4078592999722,,20:18:59.089323,,,,,,,,605495,6,2024-06-23_20h15.30.218,digit_span,2024.1.4,None,2024-06-23 20h16.25.730001 +0200,
0,0,0,0,8,0,8,0,1,0,1,0,155.497144199966,,,,,,,,,,605495,6,2024-06-23_20h15.30.218,digit_span,2024.1.4,None,2024-06-23 20h16.25.730001 +0200,
0,0,0,0,8,0,8,0,2,0,2,0,156.6017947999644,,,,,,,,,,605495,6,2024-06-23_20h15.30.218,digit_span,2024.1.4,None,2024-06-23 20h16.25.730001 +0200,
0,0,0,0,8,0,8,0,3,0,3,0,157.6961804999737,,,,,,,,,,605495,6,2024-06-23_20h15.30.218,digit_span,2024.1.4,None,2024-06-23 20h16.25.730001 +0200,
0,0,0,0,8,0,8,0,4,0,4,0,158.7973195000086,,,,,,,,,,605495,6,2024-06-23_20h15.30.218,digit_span,2024.1.4,None,2024-06-23 20h16.25.730001 +0200,
0,0,0,0,8,0,8,0,5,0,5,0,159.89954179996857,,,,,,,,,,605495,6,2024-06-23_20h15.30.218,digit_span,2024.1.4,None,2024-06-23 20h16.25.730001 +0200,
0,0,0,0,8,0,8,0,6,0,6,0,160.9994493999984,,,,,,,,,,605495,6,2024-06-23_20h15.30.218,digit_span,2024.1.4,None,2024-06-23 20h16.25.730001 +0200,
0,0,0,0,8,0,8,0,7,0,7,0,162.1011937999865,,,20:19:08.799452,,,,,,,605495,6,2024-06-23_20h15.30.218,digit_span,2024.1.4,None,2024-06-23 20h16.25.730001 +0200,
0,0,0,0,8,0,8,0,,,,,,,,,"[5, 1, 8, 3, 2, 6, 4, 7]",51832647,space,3.91961879999144,None,20:19:12.822925,605495,6,2024-06-23_20h15.30.218,digit_span,2024.1.4,None,2024-06-23 20h16.25.730001 +0200,
0,0,0,0,9,0,9,0,0,0,0,0,168.12518410000484,,20:19:12.822925,,,,,,,,605495,6,2024-06-23_20h15.30.218,digit_span,2024.1.4,None,2024-06-23 20h16.25.730001 +0200,
0,0,0,0,9,0,9,0,1,0,1,0,169.22498599998653,,,,,,,,,,605495,6,2024-06-23_20h15.30.218,digit_span,2024.1.4,None,2024-06-23 20h16.25.730001 +0200,
0,0,0,0,9,0,9,0,2,0,2,0,170.3263765000156,,,,,,,,,,605495,6,2024-06-23_20h15.30.218,digit_span,2024.1.4,None,2024-06-23 20h16.25.730001 +0200,
0,0,0,0,9,0,9,0,3,0,3,0,171.429776999983,,,,,,,,,,605495,6,2024-06-23_20h15.30.218,digit_span,2024.1.4,None,2024-06-23 20h16.25.730001 +0200,
0,0,0,0,9,0,9,0,4,0,4,0,172.52871340001002,,,,,,,,,,605495,6,2024-06-23_20h15.30.218,digit_span,2024.1.4,None,2024-06-23 20h16.25.730001 +0200,
0,0,0,0,9,0,9,0,5,0,5,0,173.6309511999716,,,,,,,,,,605495,6,2024-06-23_20h15.30.218,digit_span,2024.1.4,None,2024-06-23 20h16.25.730001 +0200,
0,0,0,0,9,0,9,0,6,0,6,0,174.7315235999995,,,,,,,,,,605495,6,2024-06-23_20h15.30.218,digit_span,2024.1.4,None,2024-06-23 20h16.25.730001 +0200,
0,0,0,0,9,0,9,0,7,0,7,0,175.83413669996662,,,20:19:22.528782,,,,,,,605495,6,2024-06-23_20h15.30.218,digit_span,2024.1.4,None,2024-06-23 20h16.25.730001 +0200,
0,0,0,0,9,0,9,0,,,,,,,,,"[6, 9, 8, 4, 5, 7, 0, 2]",96845702,space,5.748975099995732,None,20:19:28.387667,605495,6,2024-06-23_20h15.30.218,digit_span,2024.1.4,None,2024-06-23 20h16.25.730001 +0200,
0,0,0,0,10,0,10,0,0,0,0,0,183.6916815000004,,20:19:28.387667,,,,,,,,605495,6,2024-06-23_20h15.30.218,digit_span,2024.1.4,None,2024-06-23 20h16.25.730001 +0200,
0,0,0,0,10,0,10,0,1,0,1,0,184.7927888999693,,,,,,,,,,605495,6,2024-06-23_20h15.30.218,digit_span,2024.1.4,None,2024-06-23 20h16.25.730001 +0200,
0,0,0,0,10,0,10,0,2,0,2,0,185.89396580000175,,,,,,,,,,605495,6,2024-06-23_20h15.30.218,digit_span,2024.1.4,None,2024-06-23 20h16.25.730001 +0200,
0,0,0,0,10,0,10,0,3,0,3,0,186.99518450000323,,,,,,,,,,605495,6,2024-06-23_20h15.30.218,digit_span,2024.1.4,None,2024-06-23 20h16.25.730001 +0200,
0,0,0,0,10,0,10,0,4,0,4,0,188.09544770000502,,,,,,,,,,605495,6,2024-06-23_20h15.30.218,digit_span,2024.1.4,None,2024-06-23 20h16.25.730001 +0200,
0,0,0,0,10,0,10,0,5,0,5,0,189.19702999998117,,,,,,,,,,605495,6,2024-06-23_20h15.30.218,digit_span,2024.1.4,None,2024-06-23 20h16.25.730001 +0200,
0,0,0,0,10,0,10,0,6,0,6,0,190.29902480001329,,,,,,,,,,605495,6,2024-06-23_20h15.30.218,digit_span,2024.1.4,None,2024-06-23 20h16.25.730001 +0200,
0,0,0,0,10,0,10,0,7,0,7,0,191.39990780001972,,,20:19:38.095886,,,,,,,605495,6,2024-06-23_20h15.30.218,digit_span,2024.1.4,None,2024-06-23 20h16.25.730001 +0200,
0,0,0,0,10,0,10,0,,,,,,,,,"[5, 7, 6, 9, 1, 2, 8, 0]",57691280,space,7.935512600000948,None,20:19:46.141603,605495,6,2024-06-23_20h15.30.218,digit_span,2024.1.4,None,2024-06-23 20h16.25.730001 +0200,
0,0,0,0,11,0,11,0,0,0,0,0,201.44486250000773,,20:19:46.141603,,,,,,,,605495,6,2024-06-23_20h15.30.218,digit_span,2024.1.4,None,2024-06-23 20h16.25.730001 +0200,
0,0,0,0,11,0,11,0,1,0,1,0,202.54527599998983,,,,,,,,,,605495,6,2024-06-23_20h15.30.218,digit_span,2024.1.4,None,2024-06-23 20h16.25.730001 +0200,
0,0,0,0,11,0,11,0,2,0,2,0,203.64697719999822,,,,,,,,,,605495,6,2024-06-23_20h15.30.218,digit_span,2024.1.4,None,2024-06-23 20h16.25.730001 +0200,
0,0,0,0,11,0,11,0,3,0,3,0,204.74848760000896,,,,,,,,,,605495,6,2024-06-23_20h15.30.218,digit_span,2024.1.4,None,2024-06-23 20h16.25.730001 +0200,
0,0,0,0,11,0,11,0,4,0,4,0,205.84930790000362,,,,,,,,,,605495,6,2024-06-23_20h15.30.218,digit_span,2024.1.4,None,2024-06-23 20h16.25.730001 +0200,
0,0,0,0,11,0,11,0,5,0,5,0,206.952501999971,,,,,,,,,,605495,6,2024-06-23_20h15.30.218,digit_span,2024.1.4,None,2024-06-23 20h16.25.730001 +0200,
0,0,0,0,11,0,11,0,6,0,6,0,208.0537954000174,,,,,,,,,,605495,6,2024-06-23_20h15.30.218,digit_span,2024.1.4,None,2024-06-23 20h16.25.730001 +0200,
0,0,0,0,11,0,11,0,7,0,7,0,209.15996149997227,,,20:19:55.852748,,,,,,,605495,6,2024-06-23_20h15.30.218,digit_span,2024.1.4,None,2024-06-23 20h16.25.730001 +0200,
0,0,0,0,11,0,11,0,,,,,,,,,"[6, 7, 4, 0, 9, 8, 1, 5]",67409815,space,9.173508299980313,None,20:20:05.128494,605495,6,2024-06-23_20h15.30.218,digit_span,2024.1.4,None,2024-06-23 20h16.25.730001 +0200,
0,0,0,0,12,0,12,0,0,0,0,0,220.43162889999803,,20:20:05.128494,,,,,,,,605495,6,2024-06-23_20h15.30.218,digit_span,2024.1.4,None,2024-06-23 20h16.25.730001 +0200,
0,0,0,0,12,0,12,0,1,0,1,0,221.53244179999456,,,,,,,,,,605495,6,2024-06-23_20h15.30.218,digit_span,2024.1.4,None,2024-06-23 20h16.25.730001 +0200,
0,0,0,0,12,0,12,0,2,0,2,0,222.63477639999473,,,,,,,,,,605495,6,2024-06-23_20h15.30.218,digit_span,2024.1.4,None,2024-06-23 20h16.25.730001 +0200,
0,0,0,0,12,0,12,0,3,0,3,0,223.7365866000182,,,,,,,,,,605495,6,2024-06-23_20h15.30.218,digit_span,2024.1.4,None,2024-06-23 20h16.25.730001 +0200,
0,0,0,0,12,0,12,0,4,0,4,0,224.83656419999897,,,,,,,,,,605495,6,2024-06-23_20h15.30.218,digit_span,2024.1.4,None,2024-06-23 20h16.25.730001 +0200,
0,0,0,0,12,0,12,0,5,0,5,0,225.93747609999264,,,,,,,,,,605495,6,2024-06-23_20h15.30.218,digit_span,2024.1.4,None,2024-06-23 20h16.25.730001 +0200,
0,0,0,0,12,0,12,0,6,0,6,0,227.0397662000032,,,,,,,,,,605495,6,2024-06-23_20h15.30.218,digit_span,2024.1.4,None,2024-06-23 20h16.25.730001 +0200,
0,0,0,0,12,0,12,0,7,0,7,0,228.1401628999738,,,20:20:14.836871,,,,,,,605495,6,2024-06-23_20h15.30.218,digit_span,2024.1.4,None,2024-06-23 20h16.25.730001 +0200,
0,0,0,0,12,0,12,0,,,,,,,,,"[6, 3, 4, 2, 5, 8, 1, 0]",63425810 ,space,7.377493700012565,None,20:20:22.331531,605495,6,2024-06-23_20h15.30.218,digit_span,2024.1.4,None,2024-06-23 20h16.25.730001 +0200,
0,0,0,0,13,0,13,0,0,0,0,0,237.63434859999688,,20:20:22.331531,,,,,,,,605495,6,2024-06-23_20h15.30.218,digit_span,2024.1.4,None,2024-06-23 20h16.25.730001 +0200,
0,0,0,0,13,0,13,0,1,0,1,0,238.7348350000102,,,,,,,,,,605495,6,2024-06-23_20h15.30.218,digit_span,2024.1.4,None,2024-06-23 20h16.25.730001 +0200,
0,0,0,0,13,0,13,0,2,0,2,0,239.83645559998695,,,,,,,,,,605495,6,2024-06-23_20h15.30.218,digit_span,2024.1.4,None,2024-06-23 20h16.25.730001 +0200,
0,0,0,0,13,0,13,0,3,0,3,0,240.9391522000078,,,,,,,,,,605495,6,2024-06-23_20h15.30.218,digit_span,2024.1.4,None,2024-06-23 20h16.25.730001 +0200,
0,0,0,0,13,0,13,0,4,0,4,0,242.0386153999716,,,,,,,,,,605495,6,2024-06-23_20h15.30.218,digit_span,2024.1.4,None,2024-06-23 20h16.25.730001 +0200,
0,0,0,0,13,0,13,0,5,0,5,0,243.13971159997163,,,,,,,,,,605495,6,2024-06-23_20h15.30.218,digit_span,2024.1.4,None,2024-06-23 20h16.25.730001 +0200,
0,0,0,0,13,0,13,0,6,0,6,0,244.24471170001198,,,,,,,,,,605495,6,2024-06-23_20h15.30.218,digit_span,2024.1.4,None,2024-06-23 20h16.25.730001 +0200,
0,0,0,0,13,0,13,0,7,0,7,0,245.34177649999037,,,20:20:32.040750,,,,,,,605495,6,2024-06-23_20h15.30.218,digit_span,2024.1.4,None,2024-06-23 20h16.25.730001 +0200,
0,0,0,0,13,0,13,0,,,,,,,,,"[1, 2, 8, 9, 3, 0, 7, 6]",12893076,space,6.168161000008695,None,20:20:38.315327,605495,6,2024-06-23_20h15.30.218,digit_span,2024.1.4,None,2024-06-23 20h16.25.730001 +0200,
0,0,0,0,14,0,14,0,0,0,0,0,253.61942840000847,,20:20:38.315327,,,,,,,,605495,6,2024-06-23_20h15.30.218,digit_span,2024.1.4,None,2024-06-23 20h16.25.730001 +0200,
0,0,0,0,14,0,14,0,1,0,1,0,254.72125980001874,,,,,,,,,,605495,6,2024-06-23_20h15.30.218,digit_span,2024.1.4,None,2024-06-23 20h16.25.730001 +0200,
0,0,0,0,14,0,14,0,2,0,2,0,255.81994700001087,,,,,,,,,,605495,6,2024-06-23_20h15.30.218,digit_span,2024.1.4,None,2024-06-23 20h16.25.730001 +0200,
0,0,0,0,14,0,14,0,3,0,3,0,256.9214995999937,,,,,,,,,,605495,6,2024-06-23_20h15.30.218,digit_span,2024.1.4,None,2024-06-23 20h16.25.730001 +0200,
0,0,0,0,14,0,14,0,4,0,4,0,258.0229042000137,,,,,,,,,,605495,6,2024-06-23_20h15.30.218,digit_span,2024.1.4,None,2024-06-23 20h16.25.730001 +0200,
0,0,0,0,14,0,14,0,5,0,5,0,259.12399549997644,,,,,,,,,,605495,6,2024-06-23_20h15.30.218,digit_span,2024.1.4,None,2024-06-23 20h16.25.730001 +0200,
0,0,0,0,14,0,14,0,6,0,6,0,260.22523460001685,,,,,,,,,,605495,6,2024-06-23_20h15.30.218,digit_span,2024.1.4,None,2024-06-23 20h16.25.730001 +0200,
0,0,0,0,14,0,14,0,7,0,7,0,261.3281391999917,,,20:20:48.023761,,,,,,,605495,6,2024-06-23_20h15.30.218,digit_span,2024.1.4,None,2024-06-23 20h16.25.730001 +0200,
0,0,0,0,14,0,14,0,,,,,,,,,"[9, 6, 5, 2, 8, 1, 0, 4]",96528105 ,space,4.286304600012954,None,20:20:52.430420,605495,6,2024-06-23_20h15.30.218,digit_span,2024.1.4,None,2024-06-23 20h16.25.730001 +0200,
0,0,0,0,,,,,,,,,,,,,,,,,,,605495,6,2024-06-23_20h15.30.218,digit_span,2024.1.4,None,2024-06-23 20h16.25.730001 +0200,
1,0,1,0,0,0,0,0,0,0,0,0,277.5440149999922,,20:21:02.242935,,,,,,,,605495,6,2024-06-23_20h15.30.218,digit_span,2024.1.4,None,2024-06-23 20h16.25.730001 +0200,
1,0,1,0,0,0,0,0,1,0,1,0,278.6454484999995,,,,,,,,,,605495,6,2024-06-23_20h15.30.218,digit_span,2024.1.4,None,2024-06-23 20h16.25.730001 +0200,
1,0,1,0,0,0,0,0,2,0,2,0,279.74644780001836,,,,,,,,,,605495,6,2024-06-23_20h15.30.218,digit_span,2024.1.4,None,2024-06-23 20h16.25.730001 +0200,
1,0,1,0,0,0,0,0,3,0,3,0,280.84799350000685,,,,,,,,,,605495,6,2024-06-23_20h15.30.218,digit_span,2024.1.4,None,2024-06-23 20h16.25.730001 +0200,
1,0,1,0,0,0,0,0,4,0,4,0,281.94978129997617,,,20:21:08.646295,,,,,,,605495,6,2024-06-23_20h15.30.218,digit_span,2024.1.4,None,2024-06-23 20h16.25.730001 +0200,
1,0,1,0,0,0,0,0,,,,,,,,,"[3, 7, 6, 5, 0]",37650,space,8.40113889996428,None,20:21:17.158152,605495,6,2024-06-23_20h15.30.218,digit_span,2024.1.4,None,2024-06-23 20h16.25.730001 +0200,
1,0,1,0,1,0,1,0,0,0,0,0,292.46090449998155,,20:21:17.158152,,,,,,,,605495,6,2024-06-23_20h15.30.218,digit_span,2024.1.4,None,2024-06-23 20h16.25.730001 +0200,
1,0,1,0,1,0,1,0,1,0,1,0,293.57788860000437,,,,,,,,,,605495,6,2024-06-23_20h15.30.218,digit_span,2024.1.4,None,2024-06-23 20h16.25.730001 +0200,
1,0,1,0,1,0,1,0,2,0,2,0,294.6631384000066,,,,,,,,,,605495,6,2024-06-23_20h15.30.218,digit_span,2024.1.4,None,2024-06-23 20h16.25.730001 +0200,
1,0,1,0,1,0,1,0,3,0,3,0,295.76714100001846,,,,,,,,,,605495,6,2024-06-23_20h15.30.218,digit_span,2024.1.4,None,2024-06-23 20h16.25.730001 +0200,
1,0,1,0,1,0,1,0,4,0,4,0,296.867193699989,,,20:21:23.563916,,,,,,,605495,6,2024-06-23_20h15.30.218,digit_span,2024.1.4,None,2024-06-23 20h16.25.730001 +0200,
1,0,1,0,1,0,1,0,,,,,,,,,"[5, 2, 4, 3, 8]",54238,space,3.2276125000207685,None,20:21:26.902421,605495,6,2024-06-23_20h15.30.218,digit_span,2024.1.4,None,2024-06-23 20h16.25.730001 +0200,
1,0,1,0,2,0,2,0,0,0,0,0,302.2063703999738,,20:21:26.902421,,,,,,,,605495,6,2024-06-23_20h15.30.218,digit_span,2024.1.4,None,2024-06-23 20h16.25.730001 +0200,
1,0,1,0,2,0,2,0,1,0,1,0,303.3071511000162,,,,,,,,,,605495,6,2024-06-23_20h15.30.218,digit_span,2024.1.4,None,2024-06-23 20h16.25.730001 +0200,
1,0,1,0,2,0,2,0,2,0,2,0,304.40762469999027,,,,,,,,,,605495,6,2024-06-23_20h15.30.218,digit_span,2024.1.4,None,2024-06-23 20h16.25.730001 +0200,
1,0,1,0,2,0,2,0,3,0,3,0,305.5093335999991,,,,,,,,,,605495,6,2024-06-23_20h15.30.218,digit_span,2024.1.4,None,2024-06-23 20h16.25.730001 +0200,
1,0,1,0,2,0,2,0,4,0,4,0,306.6099202000187,,,20:21:33.307735,,,,,,,605495,6,2024-06-23_20h15.30.218,digit_span,2024.1.4,None,2024-06-23 20h16.25.730001 +0200,
1,0,1,0,2,0,2,0,,,,,,,,,"[7, 4, 1, 0, 6]",74106 ,space,2.7409805999486707,None,20:21:36.160804,605495,6,2024-06-23_20h15.30.218,digit_span,2024.1.4,None,2024-06-23 20h16.25.730001 +0200,
1,0,1,0,3,0,3,0,0,0,0,0,311.4651268000016,,20:21:36.161743,,,,,,,,605495,6,2024-06-23_20h15.30.218,digit_span,2024.1.4,None,2024-06-23 20h16.25.730001 +0200,
1,0,1,0,3,0,3,0,1,0,1,0,312.56693859997904,,,,,,,,,,605495,6,2024-06-23_20h15.30.218,digit_span,2024.1.4,None,2024-06-23 20h16.25.730001 +0200,
1,0,1,0,3,0,3,0,2,0,2,0,313.66955019999295,,,,,,,,,,605495,6,2024-06-23_20h15.30.218,digit_span,2024.1.4,None,2024-06-23 20h16.25.730001 +0200,
1,0,1,0,3,0,3,0,3,0,3,0,314.7698501999839,,,,,,,,,,605495,6,2024-06-23_20h15.30.218,digit_span,2024.1.4,None,2024-06-23 20h16.25.730001 +0200,
1,0,1,0,3,0,3,0,4,0,4,0,315.86966959998244,,,20:21:42.568078,,,,,,,605495,6,2024-06-23_20h15.30.218,digit_span,2024.1.4,None,2024-06-23 20h16.25.730001 +0200,
1,0,1,0,3,0,3,0,,,,,,,,,"[6, 7, 4, 5, 0]",67450,space,2.7929414000245742,None,20:21:45.471212,605495,6,2024-06-23_20h15.30.218,digit_span,2024.1.4,None,2024-06-23 20h16.25.730001 +0200,
1,0,1,0,4,0,4,0,0,0,0,0,320.77551229996607,,20:21:45.471212,,,,,,,,605495,6,2024-06-23_20h15.30.218,digit_span,2024.1.4,None,2024-06-23 20h16.25.730001 +0200,
1,0,1,0,4,0,4,0,1,0,1,0,321.8772203999688,,,,,,,,,,605495,6,2024-06-23_20h15.30.218,digit_span,2024.1.4,None,2024-06-23 20h16.25.730001 +0200,
1,0,1,0,4,0,4,0,2,0,2,0,322.9802784000058,,,,,,,,,,605495,6,2024-06-23_20h15.30.218,digit_span,2024.1.4,None,2024-06-23 20h16.25.730001 +0200,
1,0,1,0,4,0,4,0,3,0,3,0,324.0784765999997,,,,,,,,,,605495,6,2024-06-23_20h15.30.218,digit_span,2024.1.4,None,2024-06-23 20h16.25.730001 +0200,
1,0,1,0,4,0,4,0,4,0,4,0,325.1796693999786,,,20:21:51.877885,,,,,,,605495,6,2024-06-23_20h15.30.218,digit_span,2024.1.4,None,2024-06-23 20h16.25.730001 +0200,
1,0,1,0,4,0,4,0,,,,,,,,,"[1, 5, 2, 6, 4]",15264,space,2.6475657999981195,None,20:21:54.632365,605495,6,2024-06-23_20h15.30.218,digit_span,2024.1.4,None,2024-06-23 20h16.25.730001 +0200,
1,0,1,0,5,0,5,0,0,0,0,0,329.9353831000044,,20:21:54.632365,,,,,,,,605495,6,2024-06-23_20h15.30.218,digit_span,2024.1.4,None,2024-06-23 20h16.25.730001 +0200,
1,0,1,0,5,0,5,0,1,0,1,0,331.03644529997837,,,,,,,,,,605495,6,2024-06-23_20h15.30.218,digit_span,2024.1.4,None,2024-06-23 20h16.25.730001 +0200,
1,0,1,0,5,0,5,0,2,0,2,0,332.13739290001104,,,,,,,,,,605495,6,2024-06-23_20h15.30.218,digit_span,2024.1.4,None,2024-06-23 20h16.25.730001 +0200,
1,0,1,0,5,0,5,0,3,0,3,0,333.2395131000085,,,,,,,,,,605495,6,2024-06-23_20h15.30.218,digit_span,2024.1.4,None,2024-06-23 20h16.25.730001 +0200,
1,0,1,0,5,0,5,0,4,0,4,0,334.3834953000187,,,20:22:01.036957,,,,,,,605495,6,2024-06-23_20h15.30.218,digit_span,2024.1.4,None,2024-06-23 20h16.25.730001 +0200,
1,0,1,0,5,0,5,0,,,,,,,,,"[8, 9, 7, 6, 2]",89762 ,space,3.0418136000516824,None,20:22:04.193584,605495,6,2024-06-23_20h15.30.218,digit_span,2024.1.4,None,2024-06-23 20h16.25.730001 +0200,
1,0,1,0,6,0,6,0,0,0,0,0,339.4970039000036,,20:22:04.194557,,,,,,,,605495,6,2024-06-23_20h15.30.218,digit_span,2024.1.4,None,2024-06-23 20h16.25.730001 +0200,
1,0,1,0,6,0,6,0,1,0,1,0,340.599069399992,,,,,,,,,,605495,6,2024-06-23_20h15.30.218,digit_span,2024.1.4,None,2024-06-23 20h16.25.730001 +0200,
1,0,1,0,6,0,6,0,2,0,2,0,341.6993124000146,,,,,,,,,,605495,6,2024-06-23_20h15.30.218,digit_span,2024.1.4,None,2024-06-23 20h16.25.730001 +0200,
1,0,1,0,6,0,6,0,3,0,3,0,342.8003912999993,,,,,,,,,,605495,6,2024-06-23_20h15.30.218,digit_span,2024.1.4,None,2024-06-23 20h16.25.730001 +0200,
1,0,1,0,6,0,6,0,4,0,4,0,343.9007299999939,,,20:22:10.597877,,,,,,,605495,6,2024-06-23_20h15.30.218,digit_span,2024.1.4,None,2024-06-23 20h16.25.730001 +0200,
1,0,1,0,6,0,6,0,,,,,,,,,"[5, 0, 6, 1, 2]",50612 ,space,2.474039900000207,None,20:22:13.184644,605495,6,2024-06-23_20h15.30.218,digit_span,2024.1.4,None,2024-06-23 20h16.25.730001 +0200,
1,0,1,0,7,0,7,0,0,0,0,0,348.488906899991,,20:22:13.184644,,,,,,,,605495,6,2024-06-23_20h15.30.218,digit_span,2024.1.4,None,2024-06-23 20h16.25.730001 +0200,
1,0,1,0,7,0,7,0,1,0,1,0,349.59113670000806,,,,,,,,,,605495,6,2024-06-23_20h15.30.218,digit_span,2024.1.4,None,2024-06-23 20h16.25.730001 +0200,
1,0,1,0,7,0,7,0,2,0,2,0,350.6924741999828,,,,,,,,,,605495,6,2024-06-23_20h15.30.218,digit_span,2024.1.4,None,2024-06-23 20h16.25.730001 +0200,
1,0,1,0,7,0,7,0,3,0,3,0,351.7924132000189,,,,,,,,,,605495,6,2024-06-23_20h15.30.218,digit_span,2024.1.4,None,2024-06-23 20h16.25.730001 +0200,
1,0,1,0,7,0,7,0,4,0,4,0,352.89419139997335,,,20:22:19.590664,,,,,,,605495,6,2024-06-23_20h15.30.218,digit_span,2024.1.4,None,2024-06-23 20h16.25.730001 +0200,
1,0,1,0,7,0,7,0,,,,,,,,,"[1, 8, 7, 5, 4]",18754,space,2.4151245999964885,None,20:22:22.111529,605495,6,2024-06-23_20h15.30.218,digit_span,2024.1.4,None,2024-06-23 20h16.25.730001 +0200,
1,0,1,0,8,0,8,0,0,0,0,0,357.4164279999677,,20:22:22.113039,,,,,,,,605495,6,2024-06-23_20h15.30.218,digit_span,2024.1.4,None,2024-06-23 20h16.25.730001 +0200,
1,0,1,0,8,0,8,0,1,0,1,0,358.5186639999738,,,,,,,,,,605495,6,2024-06-23_20h15.30.218,digit_span,2024.1.4,None,2024-06-23 20h16.25.730001 +0200,
1,0,1,0,8,0,8,0,2,0,2,0,359.6183658000082,,,,,,,,,,605495,6,2024-06-23_20h15.30.218,digit_span,2024.1.4,None,2024-06-23 20h16.25.730001 +0200,
1,0,1,0,8,0,8,0,3,0,3,0,360.7193437999813,,,,,,,,,,605495,6,2024-06-23_20h15.30.218,digit_span,2024.1.4,None,2024-06-23 20h16.25.730001 +0200,
1,0,1,0,8,0,8,0,4,0,4,0,361.8215489999857,,,20:22:28.517511,,,,,,,605495,6,2024-06-23_20h15.30.218,digit_span,2024.1.4,None,2024-06-23 20h16.25.730001 +0200,
1,0,1,0,8,0,8,0,,,,,,,,,"[6, 4, 8, 0, 5]",64805,space,2.7462805000250228,None,20:22:31.371283,605495,6,2024-06-23_20h15.30.218,digit_span,2024.1.4,None,2024-06-23 20h16.25.730001 +0200,
1,0,1,0,9,0,9,0,0,0,0,0,366.6757719999878,,20:22:31.371283,,,,,,,,605495,6,2024-06-23_20h15.30.218,digit_span,2024.1.4,None,2024-06-23 20h16.25.730001 +0200,
1,0,1,0,9,0,9,0,1,0,1,0,367.77934000000823,,,,,,,,,,605495,6,2024-06-23_20h15.30.218,digit_span,2024.1.4,None,2024-06-23 20h16.25.730001 +0200,
1,0,1,0,9,0,9,0,2,0,2,0,368.8795243999921,,,,,,,,,,605495,6,2024-06-23_20h15.30.218,digit_span,2024.1.4,None,2024-06-23 20h16.25.730001 +0200,
1,0,1,0,9,0,9,0,3,0,3,0,369.97938610002166,,,,,,,,,,605495,6,2024-06-23_20h15.30.218,digit_span,2024.1.4,None,2024-06-23 20h16.25.730001 +0200,
1,0,1,0,9,0,9,0,4,0,4,0,371.0804587000166,,,20:22:37.777411,,,,,,,605495,6,2024-06-23_20h15.30.218,digit_span,2024.1.4,None,2024-06-23 20h16.25.730001 +0200,
1,0,1,0,9,0,9,0,,,,,,,,,"[3, 6, 1, 5, 9]",36159,space,2.5328359000268392,None,20:22:40.415829,605495,6,2024-06-23_20h15.30.218,digit_span,2024.1.4,None,2024-06-23 20h16.25.730001 +0200,
1,0,1,0,10,0,10,0,0,0,0,0,375.7201403999934,,20:22:40.415829,,,,,,,,605495,6,2024-06-23_20h15.30.218,digit_span,2024.1.4,None,2024-06-23 20h16.25.730001 +0200,
1,0,1,0,10,0,10,0,1,0,1,0,376.81950589996995,,,,,,,,,,605495,6,2024-06-23_20h15.30.218,digit_span,2024.1.4,None,2024-06-23 20h16.25.730001 +0200,
1,0,1,0,10,0,10,0,2,0,2,0,377.922370699991,,,,,,,,,,605495,6,2024-06-23_20h15.30.218,digit_span,2024.1.4,None,2024-06-23 20h16.25.730001 +0200,
1,0,1,0,10,0,10,0,3,0,3,0,379.023960200022,,,,,,,,,,605495,6,2024-06-23_20h15.30.218,digit_span,2024.1.4,None,2024-06-23 20h16.25.730001 +0200,
1,0,1,0,10,0,10,0,4,0,4,0,380.1241722999839,,,20:22:46.821258,,,,,,,605495,6,2024-06-23_20h15.30.218,digit_span,2024.1.4,None,2024-06-23 20h16.25.730001 +0200,
1,0,1,0,10,0,10,0,,,,,,,,,"[8, 6, 7, 5, 4]",86754 ,space,3.120706500019878,None,20:22:50.060002,605495,6,2024-06-23_20h15.30.218,digit_span,2024.1.4,None,2024-06-23 20h16.25.730001 +0200,
1,0,1,0,11,0,11,0,0,0,0,0,385.3628667999874,,20:22:50.060002,,,,,,,,605495,6,2024-06-23_20h15.30.218,digit_span,2024.1.4,None,2024-06-23 20h16.25.730001 +0200,
1,0,1,0,11,0,11,0,1,0,1,0,386.4652005999815,,,,,,,,,,605495,6,2024-06-23_20h15.30.218,digit_span,2024.1.4,None,2024-06-23 20h16.25.730001 +0200,
1,0,1,0,11,0,11,0,2,0,2,0,387.56507140002213,,,,,,,,,,605495,6,2024-06-23_20h15.30.218,digit_span,2024.1.4,None,2024-06-23 20h16.25.730001 +0200,
1,0,1,0,11,0,11,0,3,0,3,0,388.6676431999658,,,,,,,,,,605495,6,2024-06-23_20h15.30.218,digit_span,2024.1.4,None,2024-06-23 20h16.25.730001 +0200,
1,0,1,0,11,0,11,0,4,0,4,0,389.7720489000203,,,20:22:56.463651,,,,,,,605495,6,2024-06-23_20h15.30.218,digit_span,2024.1.4,None,2024-06-23 20h16.25.730001 +0200,
1,0,1,0,11,0,11,0,,,,,,,,,"[2, 9, 4, 1, 3]",29413,space,2.8988637999864295,None,20:22:59.469905,605495,6,2024-06-23_20h15.30.218,digit_span,2024.1.4,None,2024-06-23 20h16.25.730001 +0200,
1,0,1,0,12,0,12,0,0,0,0,0,394.8116993000149,,20:22:59.470409,,,,,,,,605495,6,2024-06-23_20h15.30.218,digit_span,2024.1.4,None,2024-06-23 20h16.25.730001 +0200,
1,0,1,0,12,0,12,0,1,0,1,0,395.8743449000176,,,,,,,,,,605495,6,2024-06-23_20h15.30.218,digit_span,2024.1.4,None,2024-06-23 20h16.25.730001 +0200,
1,0,1,0,12,0,12,0,2,0,2,0,396.9757511999924,,,,,,,,,,605495,6,2024-06-23_20h15.30.218,digit_span,2024.1.4,None,2024-06-23 20h16.25.730001 +0200,
1,0,1,0,12,0,12,0,3,0,3,0,398.0771250000107,,,,,,,,,,605495,6,2024-06-23_20h15.30.218,digit_span,2024.1.4,None,2024-06-23 20h16.25.730001 +0200,
1,0,1,0,12,0,12,0,4,0,4,0,399.1792669999995,,,20:23:05.879943,,,,,,,605495,6,2024-06-23_20h15.30.218,digit_span,2024.1.4,None,2024-06-23 20h16.25.730001 +0200,
1,0,1,0,12,0,12,0,,,,,,,,,"[5, 6, 1, 8, 7]",56187,space,3.2960282000130974,None,20:23:09.281411,605495,6,2024-06-23_20h15.30.218,digit_span,2024.1.4,None,2024-06-23 20h16.25.730001 +0200,
1,0,1,0,13,0,13,0,0,0,0,0,404.58399409998674,,20:23:09.281411,,,,,,,,605495,6,2024-06-23_20h15.30.218,digit_span,2024.1.4,None,2024-06-23 20h16.25.730001 +0200,
1,0,1,0,13,0,13,0,1,0,1,0,405.6852933000191,,,,,,,,,,605495,6,2024-06-23_20h15.30.218,digit_span,2024.1.4,None,2024-06-23 20h16.25.730001 +0200,
1,0,1,0,13,0,13,0,2,0,2,0,406.78620079997927,,,,,,,,,,605495,6,2024-06-23_20h15.30.218,digit_span,2024.1.4,None,2024-06-23 20h16.25.730001 +0200,
1,0,1,0,13,0,13,0,3,0,3,0,407.8878902000142,,,,,,,,,,605495,6,2024-06-23_20h15.30.218,digit_span,2024.1.4,None,2024-06-23 20h16.25.730001 +0200,
1,0,1,0,13,0,13,0,4,0,4,0,408.98898690001806,,,20:23:15.685984,,,,,,,605495,6,2024-06-23_20h15.30.218,digit_span,2024.1.4,None,2024-06-23 20h16.25.730001 +0200,
1,0,1,0,13,0,13,0,,,,,,,,,"[1, 5, 0, 3, 9]",15039,space,3.586072200036142,None,20:23:19.375570,605495,6,2024-06-23_20h15.30.218,digit_span,2024.1.4,None,2024-06-23 20h16.25.730001 +0200,
1,0,1,0,14,0,14,0,0,0,0,0,414.6790890999837,,20:23:19.375570,,,,,,,,605495,6,2024-06-23_20h15.30.218,digit_span,2024.1.4,None,2024-06-23 20h16.25.730001 +0200,
1,0,1,0,14,0,14,0,1,0,1,0,415.7800005999743,,,,,,,,,,605495,6,2024-06-23_20h15.30.218,digit_span,2024.1.4,None,2024-06-23 20h16.25.730001 +0200,
1,0,1,0,14,0,14,0,2,0,2,0,416.88249029999133,,,,,,,,,,605495,6,2024-06-23_20h15.30.218,digit_span,2024.1.4,None,2024-06-23 20h16.25.730001 +0200,
1,0,1,0,14,0,14,0,3,0,3,0,417.98313369997777,,,,,,,,,,605495,6,2024-06-23_20h15.30.218,digit_span,2024.1.4,None,2024-06-23 20h16.25.730001 +0200,
1,0,1,0,14,0,14,0,4,0,4,0,419.08292269997764,,,20:23:25.783912,,,,,,,605495,6,2024-06-23_20h15.30.218,digit_span,2024.1.4,None,2024-06-23 20h16.25.730001 +0200,
1,0,1,0,14,0,14,0,,,,,,,,,"[1, 8, 9, 4, 5]",18945,space,3.002641599974595,None,20:23:28.886081,605495,6,2024-06-23_20h15.30.218,digit_span,2024.1.4,None,2024-06-23 20h16.25.730001 +0200,
1,0,1,0,,,,,,,,,,,,,,,,,,,605495,6,2024-06-23_20h15.30.218,digit_span,2024.1.4,None,2024-06-23 20h16.25.730001 +0200,
2,0,2,0,0,0,0,0,0,0,0,0,426.94178769999417,,20:23:31.640954,,,,,,,,605495,6,2024-06-23_20h15.30.218,digit_span,2024.1.4,None,2024-06-23 20h16.25.730001 +0200,
2,0,2,0,0,0,0,0,1,0,1,0,428.04322059999686,,,,,,,,,,605495,6,2024-06-23_20h15.30.218,digit_span,2024.1.4,None,2024-06-23 20h16.25.730001 +0200,
2,0,2,0,0,0,0,0,2,0,2,0,429.144501200004,,,20:23:35.840950,,,,,,,605495,6,2024-06-23_20h15.30.218,digit_span,2024.1.4,None,2024-06-23 20h16.25.730001 +0200,
2,0,2,0,0,0,0,0,,,,,,,,,"[3, 6, 4]",364,space,2.0294773999485187,None,20:23:37.978900,605495,6,2024-06-23_20h15.30.218,digit_span,2024.1.4,None,2024-06-23 20h16.25.730001 +0200,
2,0,2,0,1,0,1,0,0,0,0,0,433.2827000999823,,20:23:37.978900,,,,,,,,605495,6,2024-06-23_20h15.30.218,digit_span,2024.1.4,None,2024-06-23 20h16.25.730001 +0200,
2,0,2,0,1,0,1,0,1,0,1,0,434.38348509999923,,,,,,,,,,605495,6,2024-06-23_20h15.30.218,digit_span,2024.1.4,None,2024-06-23 20h16.25.730001 +0200,
2,0,2,0,1,0,1,0,2,0,2,0,435.4840610999963,,,20:23:42.180428,,,,,,,605495,6,2024-06-23_20h15.30.218,digit_span,2024.1.4,None,2024-06-23 20h16.25.730001 +0200,
2,0,2,0,1,0,1,0,,,,,,,,,"[6, 2, 8]",628,space,1.9927280000410974,None,20:23:44.286403,605495,6,2024-06-23_20h15.30.218,digit_span,2024.1.4,None,2024-06-23 20h16.25.730001 +0200,
2,0,2,0,2,0,2,0,0,0,0,0,439.58856220002053,,20:23:44.286403,,,,,,,,605495,6,2024-06-23_20h15.30.218,digit_span,2024.1.4,None,2024-06-23 20h16.25.730001 +0200,
2,0,2,0,2,0,2,0,1,0,1,0,440.69102089997614,,,,,,,,,,605495,6,2024-06-23_20h15.30.218,digit_span,2024.1.4,None,2024-06-23 20h16.25.730001 +0200,
2,0,2,0,2,0,2,0,2,0,2,0,441.794125800021,,,20:23:48.487876,,,,,,,605495,6,2024-06-23_20h15.30.218,digit_span,2024.1.4,None,2024-06-23 20h16.25.730001 +0200,
2,0,2,0,2,0,2,0,,,,,,,,,"[6, 1, 3]",613,space,2.374108600022737,None,20:23:50.975333,605495,6,2024-06-23_20h15.30.218,digit_span,2024.1.4,None,2024-06-23 20h16.25.730001 +0200,
2,0,2,0,3,0,3,0,0,0,0,0,446.2816653000191,,20:23:50.976333,,,,,,,,605495,6,2024-06-23_20h15.30.218,digit_span,2024.1.4,None,2024-06-23 20h16.25.730001 +0200,
2,0,2,0,3,0,3,0,1,0,1,0,447.3813061999972,,,,,,,,,,605495,6,2024-06-23_20h15.30.218,digit_span,2024.1.4,None,2024-06-23 20h16.25.730001 +0200,
2,0,2,0,3,0,3,0,2,0,2,0,448.48249029996805,,,20:23:55.178642,,,,,,,605495,6,2024-06-23_20h15.30.218,digit_span,2024.1.4,None,2024-06-23 20h16.25.730001 +0200,
2,0,2,0,3,0,3,0,,,,,,,,,"[2, 1, 4]",214 ,space,3.6118700000224635,None,20:23:58.904529,605495,6,2024-06-23_20h15.30.218,digit_span,2024.1.4,None,2024-06-23 20h16.25.730001 +0200,
2,0,2,0,4,0,4,0,0,0,0,0,454.20737339998595,,20:23:58.904529,,,,,,,,605495,6,2024-06-23_20h15.30.218,digit_span,2024.1.4,None,2024-06-23 20h16.25.730001 +0200,
2,0,2,0,4,0,4,0,1,0,1,0,455.30739229999017,,,,,,,,,,605495,6,2024-06-23_20h15.30.218,digit_span,2024.1.4,None,2024-06-23 20h16.25.730001 +0200,
2,0,2,0,4,0,4,0,2,0,2,0,456.4268491999828,,,20:24:03.109460,,,,,,,605495,6,2024-06-23_20h15.30.218,digit_span,2024.1.4,None,2024-06-23 20h16.25.730001 +0200,
2,0,2,0,4,0,4,0,,,,,,,,,"[5, 7, 2]",572,space,2.0110332000185736,None,20:24:05.226040,605495,6,2024-06-23_20h15.30.218,digit_span,2024.1.4,None,2024-06-23 20h16.25.730001 +0200,
2,0,2,0,5,0,5,0,0,0,0,0,460.52876840002136,,20:24:05.226040,,,,,,,,605495,6,2024-06-23_20h15.30.218,digit_span,2024.1.4,None,2024-06-23 20h16.25.730001 +0200,
2,0,2,0,5,0,5,0,1,0,1,0,461.62997489998816,,,,,,,,,,605495,6,2024-06-23_20h15.30.218,digit_span,2024.1.4,None,2024-06-23 20h16.25.730001 +0200,
2,0,2,0,5,0,5,0,2,0,2,0,462.7308169999742,,,20:24:09.428819,,,,,,,605495,6,2024-06-23_20h15.30.218,digit_span,2024.1.4,None,2024-06-23 20h16.25.730001 +0200,
2,0,2,0,5,0,5,0,,,,,,,,,"[7, 9, 0]",790,space,2.3139758000033908,None,20:24:11.848593,605495,6,2024-06-23_20h15.30.218,digit_span,2024.1.4,None,2024-06-23 20h16.25.730001 +0200,
2,0,2,0,6,0,6,0,0,0,0,0,467.1527289999649,,20:24:11.850098,,,,,,,,605495,6,2024-06-23_20h15.30.218,digit_span,2024.1.4,None,2024-06-23 20h16.25.730001 +0200,
2,0,2,0,6,0,6,0,1,0,1,0,468.25436949997675,,,,,,,,,,605495,6,2024-06-23_20h15.30.218,digit_span,2024.1.4,None,2024-06-23 20h16.25.730001 +0200,
2,0,2,0,6,0,6,0,2,0,2,0,469.35532839997904,,,20:24:16.052705,,,,,,,605495,6,2024-06-23_20h15.30.218,digit_span,2024.1.4,None,2024-06-23 20h16.25.730001 +0200,
2,0,2,0,6,0,6,0,,,,,,,,,"[9, 8, 3]",983,space,2.163276200008113,None,20:24:18.322778,605495,6,2024-06-23_20h15.30.218,digit_span,2024.1.4,None,2024-06-23 20h16.25.730001 +0200,
2,0,2,0,7,0,7,0,0,0,0,0,473.62667359999614,,20:24:18.322778,,,,,,,,605495,6,2024-06-23_20h15.30.218,digit_span,2024.1.4,None,2024-06-23 20h16.25.730001 +0200,
2,0,2,0,7,0,7,0,1,0,1,0,474.72714550001547,,,,,,,,,,605495,6,2024-06-23_20h15.30.218,digit_span,2024.1.4,None,2024-06-23 20h16.25.730001 +0200,
2,0,2,0,7,0,7,0,2,0,2,0,475.8287476999685,,,20:24:22.526646,,,,,,,605495,6,2024-06-23_20h15.30.218,digit_span,2024.1.4,None,2024-06-23 20h16.25.730001 +0200,
2,0,2,0,7,0,7,0,,,,,,,,,"[6, 2, 4]",624,space,2.6185500000137836,None,20:24:25.248132,605495,6,2024-06-23_20h15.30.218,digit_span,2024.1.4,None,2024-06-23 20h16.25.730001 +0200,
2,0,2,0,8,0,8,0,0,0,0,0,480.55093430000124,,20:24:25.248132,,,,,,,,605495,6,2024-06-23_20h15.30.218,digit_span,2024.1.4,None,2024-06-23 20h16.25.730001 +0200,
2,0,2,0,8,0,8,0,1,0,1,0,481.67100189998746,,,,,,,,,,605495,6,2024-06-23_20h15.30.218,digit_span,2024.1.4,None,2024-06-23 20h16.25.730001 +0200,
2,0,2,0,8,0,8,0,2,0,2,0,482.75441990001127,,,20:24:29.451084,,,,,,,605495,6,2024-06-23_20h15.30.218,digit_span,2024.1.4,None,2024-06-23 20h16.25.730001 +0200,
2,0,2,0,8,0,8,0,,,,,,,,,"[7, 5, 8]",758,space,1.9642791000078432,None,20:24:31.522740,605495,6,2024-06-23_20h15.30.218,digit_span,2024.1.4,None,2024-06-23 20h16.25.730001 +0200,
2,0,2,0,9,0,9,0,0,0,0,0,486.825534100004,,20:24:31.523734,,,,,,,,605495,6,2024-06-23_20h15.30.218,digit_span,2024.1.4,None,2024-06-23 20h16.25.730001 +0200,
2,0,2,0,9,0,9,0,1,0,1,0,487.9261641000048,,,,,,,,,,605495,6,2024-06-23_20h15.30.218,digit_span,2024.1.4,None,2024-06-23 20h16.25.730001 +0200,
2,0,2,0,9,0,9,0,2,0,2,0,489.04421439999714,,,20:24:35.724894,,,,,,,605495,6,2024-06-23_20h15.30.218,digit_span,2024.1.4,None,2024-06-23 20h16.25.730001 +0200,
2,0,2,0,9,0,9,0,,,,,,,,,"[4, 0, 7]",407 ,space,1.75468929996714,None,20:24:37.594285,605495,6,2024-06-23_20h15.30.218,digit_span,2024.1.4,None,2024-06-23 20h16.25.730001 +0200,
2,0,2,0,10,0,10,0,0,0,0,0,492.89754450001055,,20:24:37.595875,,,,,,,,605495,6,2024-06-23_20h15.30.218,digit_span,2024.1.4,None,2024-06-23 20h16.25.730001 +0200,
2,0,2,0,10,0,10,0,1,0,1,0,493.9990764000104,,,,,,,,,,605495,6,2024-06-23_20h15.30.218,digit_span,2024.1.4,None,2024-06-23 20h16.25.730001 +0200,
2,0,2,0,10,0,10,0,2,0,2,0,495.09985679999227,,,20:24:41.797517,,,,,,,605495,6,2024-06-23_20h15.30.218,digit_span,2024.1.4,None,2024-06-23 20h16.25.730001 +0200,
2,0,2,0,10,0,10,0,,,,,,,,,"[9, 6, 3]",963,space,2.4735002999659628,None,20:24:44.385690,605495,6,2024-06-23_20h15.30.218,digit_span,2024.1.4,None,2024-06-23 20h16.25.730001 +0200,
2,0,2,0,11,0,11,0,0,0,0,0,499.6897125999676,,20:24:44.386690,,,,,,,,605495,6,2024-06-23_20h15.30.218,digit_span,2024.1.4,None,2024-06-23 20h16.25.730001 +0200,
2,0,2,0,11,0,11,0,1,0,1,0,500.79069519997574,,,,,,,,,,605495,6,2024-06-23_20h15.30.218,digit_span,2024.1.4,None,2024-06-23 20h16.25.730001 +0200,
2,0,2,0,11,0,11,0,2,0,2,0,501.8907049999689,,,20:24:48.587338,,,,,,,605495,6,2024-06-23_20h15.30.218,digit_span,2024.1.4,None,2024-06-23 20h16.25.730001 +0200,
2,0,2,0,11,0,11,0,,,,,,,,,"[5, 4, 6]",546,space,2.5952989000361413,None,20:24:51.292004,605495,6,2024-06-23_20h15.30.218,digit_span,2024.1.4,None,2024-06-23 20h16.25.730001 +0200,
2,0,2,0,12,0,12,0,0,0,0,0,506.5969010000117,,20:24:51.292004,,,,,,,,605495,6,2024-06-23_20h15.30.218,digit_span,2024.1.4,None,2024-06-23 20h16.25.730001 +0200,
2,0,2,0,12,0,12,0,1,0,1,0,507.69794099999126,,,,,,,,,,605495,6,2024-06-23_20h15.30.218,digit_span,2024.1.4,None,2024-06-23 20h16.25.730001 +0200,
2,0,2,0,12,0,12,0,2,0,2,0,508.79865149996476,,,20:24:55.497557,,,,,,,605495,6,2024-06-23_20h15.30.218,digit_span,2024.1.4,None,2024-06-23 20h16.25.730001 +0200,
2,0,2,0,12,0,12,0,,,,,,,,,"[5, 7, 1]",571 ,space,1.8230337999993935,None,20:24:57.437369,605495,6,2024-06-23_20h15.30.218,digit_span,2024.1.4,None,2024-06-23 20h16.25.730001 +0200,
2,0,2,0,13,0,13,0,0,0,0,0,512.7364921999979,,20:24:57.437369,,,,,,,,605495,6,2024-06-23_20h15.30.218,digit_span,2024.1.4,None,2024-06-23 20h16.25.730001 +0200,
2,0,2,0,13,0,13,0,1,0,1,0,513.8394347999711,,,,,,,,,,605495,6,2024-06-23_20h15.30.218,digit_span,2024.1.4,None,2024-06-23 20h16.25.730001 +0200,
2,0,2,0,13,0,13,0,2,0,2,0,514.9397172000026,,,20:25:01.636413,,,,,,,605495,6,2024-06-23_20h15.30.218,digit_span,2024.1.4,None,2024-06-23 20h16.25.730001 +0200,
2,0,2,0,13,0,13,0,,,,,,,,,"[8, 7, 0]",870 ,space,1.6359731000266038,None,20:25:03.388615,605495,6,2024-06-23_20h15.30.218,digit_span,2024.1.4,None,2024-06-23 20h16.25.730001 +0200,
2,0,2,0,14,0,14,0,0,0,0,0,518.6940989000141,,20:25:03.389622,,,,,,,,605495,6,2024-06-23_20h15.30.218,digit_span,2024.1.4,None,2024-06-23 20h16.25.730001 +0200,
2,0,2,0,14,0,14,0,1,0,1,0,519.7950740999659,,,,,,,,,,605495,6,2024-06-23_20h15.30.218,digit_span,2024.1.4,None,2024-06-23 20h16.25.730001 +0200,
2,0,2,0,14,0,14,0,2,0,2,0,520.8973131999956,,,20:25:07.591993,,,,,,,605495,6,2024-06-23_20h15.30.218,digit_span,2024.1.4,None,2024-06-23 20h16.25.730001 +0200,
2,0,2,0,14,0,14,0,,,,,,,,,"[0, 5, 2]",052,space,2.2633990999893285,None,20:25:09.964173,605495,6,2024-06-23_20h15.30.218,digit_span,2024.1.4,None,2024-06-23 20h16.25.730001 +0200,
2,0,2,0,,,,,,,,,,,,,,,,,,,605495,6,2024-06-23_20h15.30.218,digit_span,2024.1.4,None,2024-06-23 20h16.25.730001 +0200,
2,0,2,0,,,,,,,,,,,,,,,,,,,605495,6,2024-06-23_20h15.30.218,digit_span,2024.1.4,None,2024-06-23 20h16.25.730001 +0200,
,,,,,,,,,,,,,,,,,,,,,,605495,6,2024-06-23_20h15.30.218,digit_span,2024.1.4,None,2024-06-23 20h16.25.730001 +0200,
