cond.thisRepN,cond.thisTrialN,cond.thisN,cond.thisIndex,trials.thisRepN,trials.thisTrialN,trials.thisN,trials.thisIndex,digit_rep.thisRepN,digit_rep.thisTrialN,digit_rep.thisN,digit_rep.thisIndex,thisRow.t,notes,sequence_started,sequence_ended,digit_sequence,result_box.text,confirm_input.keys,confirm_input.rt,confirm_input.duration,input_ended,participant,order,date,expName,psychopyVersion,frameRate,expStart,
0,0,0,0,0,0,0,0,0,0,0,0,1.7981963999918662,,19:52:35.169961,,,,,,,,P2,2,2024-06-28_19h52.16.260,digit_span,2023.2.3,143.73288676384547,2024-06-28 19h52.34.479581 +0200,
0,0,0,0,0,0,0,0,1,0,1,0,2.807282200024929,,,,,,,,,,P2,2,2024-06-28_19h52.16.260,digit_span,2023.2.3,143.73288676384547,2024-06-28 19h52.34.479581 +0200,
0,0,0,0,0,0,0,0,2,0,2,0,3.912546699983068,,,19:52:39.368223,,,,,,,P2,2,2024-06-28_19h52.16.260,digit_span,2023.2.3,143.73288676384547,2024-06-28 19h52.34.479581 +0200,
0,0,0,0,0,0,0,0,,,,,,,,,"[2, 0, 8]",208,space,4.80988429998979,None,19:52:44.285439,P2,2,2024-06-28_19h52.16.260,digit_span,2023.2.3,143.73288676384547,2024-06-28 19h52.34.479581 +0200,
0,0,0,0,1,0,1,0,0,0,0,0,10.821897900023032,,19:52:44.285439,,,,,,,,P2,2,2024-06-28_19h52.16.260,digit_span,2023.2.3,143.73288676384547,2024-06-28 19h52.34.479581 +0200,
0,0,0,0,1,0,1,0,1,0,1,0,11.92559739999706,,,,,,,,,,P2,2,2024-06-28_19h52.16.260,digit_span,2023.2.3,143.73288676384547,2024-06-28 19h52.34.479581 +0200,
0,0,0,0,1,0,1,0,2,0,2,0,13.016381699999329,,,19:52:48.486508,,,,,,,P2,2,2024-06-28_19h52.16.260,digit_span,2023.2.3,143.73288676384547,2024-06-28 19h52.34.479581 +0200,
0,0,0,0,1,0,1,0,,,,,,,,,"[9, 5, 8]",958,space,1.0930124000296928,None,19:52:49.687287,P2,2,2024-06-28_19h52.16.260,digit_span,2023.2.3,143.73288676384547,2024-06-28 19h52.34.479581 +0200,
0,0,0,0,2,0,2,0,0,0,0,0,16.217209700029343,,19:52:49.688285,,,,,,,,P2,2,2024-06-28_19h52.16.260,digit_span,2023.2.3,143.73288676384547,2024-06-28 19h52.34.479581 +0200,
0,0,0,0,2,0,2,0,1,0,1,0,17.331517899991013,,,,,,,,,,P2,2,2024-06-28_19h52.16.260,digit_span,2023.2.3,143.73288676384547,2024-06-28 19h52.34.479581 +0200,
0,0,0,0,2,0,2,0,2,0,2,0,18.429112699988764,,,19:52:53.889073,,,,,,,P2,2,2024-06-28_19h52.16.260,digit_span,2023.2.3,143.73288676384547,2024-06-28 19h52.34.479581 +0200,
0,0,0,0,2,0,2,0,,,,,,,,,"[0, 1, 7]",017 ,space,1.3539348000194877,None,19:52:55.353883,P2,2,2024-06-28_19h52.16.260,digit_span,2023.2.3,143.73288676384547,2024-06-28 19h52.34.479581 +0200,
0,0,0,0,3,0,3,0,0,0,0,0,21.889133999997284,,19:52:55.354881,,,,,,,,P2,2,2024-06-28_19h52.16.260,digit_span,2023.2.3,143.73288676384547,2024-06-28 19h52.34.479581 +0200,
0,0,0,0,3,0,3,0,1,0,1,0,22.99138550000498,,,,,,,,,,P2,2,2024-06-28_19h52.16.260,digit_span,2023.2.3,143.73288676384547,2024-06-28 19h52.34.479581 +0200,
0,0,0,0,3,0,3,0,2,0,2,0,24.0859714000253,,,19:52:59.555292,,,,,,,P2,2,2024-06-28_19h52.16.260,digit_span,2023.2.3,143.73288676384547,2024-06-28 19h52.34.479581 +0200,
0,0,0,0,3,0,3,0,,,,,,,,,"[3, 4, 7]",347,space,2.085965699981898,None,19:53:01.749951,P2,2,2024-06-28_19h52.16.260,digit_span,2023.2.3,143.73288676384547,2024-06-28 19h52.34.479581 +0200,
0,0,0,0,4,0,4,0,0,0,0,0,28.27938050002558,,19:53:01.749951,,,,,,,,P2,2,2024-06-28_19h52.16.260,digit_span,2023.2.3,143.73288676384547,2024-06-28 19h52.34.479581 +0200,
0,0,0,0,4,0,4,0,1,0,1,0,29.390597100020386,,,,,,,,,,P2,2,2024-06-28_19h52.16.260,digit_span,2023.2.3,143.73288676384547,2024-06-28 19h52.34.479581 +0200,
0,0,0,0,4,0,4,0,2,0,2,0,30.480679300031625,,,19:53:05.950575,,,,,,,P2,2,2024-06-28_19h52.16.260,digit_span,2023.2.3,143.73288676384547,2024-06-28 19h52.34.479581 +0200,
0,0,0,0,4,0,4,0,,,,,,,,,"[2, 6, 5]",265,space,3.6271491999505088,None,19:53:09.686995,P2,2,2024-06-28_19h52.16.260,digit_span,2023.2.3,143.73288676384547,2024-06-28 19h52.34.479581 +0200,
0,0,0,0,5,0,5,0,0,0,0,0,36.21663889999036,,19:53:09.686995,,,,,,,,P2,2,2024-06-28_19h52.16.260,digit_span,2023.2.3,143.73288676384547,2024-06-28 19h52.34.479581 +0200,
0,0,0,0,5,0,5,0,1,0,1,0,37.32084770000074,,,,,,,,,,P2,2,2024-06-28_19h52.16.260,digit_span,2023.2.3,143.73288676384547,2024-06-28 19h52.34.479581 +0200,
0,0,0,0,5,0,5,0,2,0,2,0,38.418043399986345,,,19:53:13.887604,,,,,,,P2,2,2024-06-28_19h52.16.260,digit_span,2023.2.3,143.73288676384547,2024-06-28 19h52.34.479581 +0200,
0,0,0,0,5,0,5,0,,,,,,,,,"[5, 8, 6]",5483,space,3.7102492000558414,None,19:53:17.708026,P2,2,2024-06-28_19h52.16.260,digit_span,2023.2.3,143.73288676384547,2024-06-28 19h52.34.479581 +0200,
0,0,0,0,6,0,6,0,0,0,0,0,44.23744470003294,,19:53:17.708026,,,,,,,,P2,2,2024-06-28_19h52.16.260,digit_span,2023.2.3,143.73288676384547,2024-06-28 19h52.34.479581 +0200,
0,0,0,0,6,0,6,0,1,0,1,0,45.34094379999442,,,,,,,,,,P2,2,2024-06-28_19h52.16.260,digit_span,2023.2.3,143.73288676384547,2024-06-28 19h52.34.479581 +0200,
0,0,0,0,6,0,6,0,2,0,2,0,46.438077500031795,,,19:53:21.907911,,,,,,,P2,2,2024-06-28_19h52.16.260,digit_span,2023.2.3,143.73288676384547,2024-06-28 19h52.34.479581 +0200,
0,0,0,0,6,0,6,0,,,,,,,,,"[7, 4, 9]",749,space,1.8488660999573767,None,19:53:23.867375,P2,2,2024-06-28_19h52.16.260,digit_span,2023.2.3,143.73288676384547,2024-06-28 19h52.34.479581 +0200,
0,0,0,0,7,0,7,0,0,0,0,0,50.39681639999617,,19:53:23.868372,,,,,,,,P2,2,2024-06-28_19h52.16.260,digit_span,2023.2.3,143.73288676384547,2024-06-28 19h52.34.479581 +0200,
0,0,0,0,7,0,7,0,1,0,1,0,51.50138179998612,,,,,,,,,,P2,2,2024-06-28_19h52.16.260,digit_span,2023.2.3,143.73288676384547,2024-06-28 19h52.34.479581 +0200,
0,0,0,0,7,0,7,0,2,0,2,0,52.5983573999838,,,19:53:28.067968,,,,,,,P2,2,2024-06-28_19h52.16.260,digit_span,2023.2.3,143.73288676384547,2024-06-28 19h52.34.479581 +0200,
0,0,0,0,7,0,7,0,,,,,,,,,"[4, 7, 0]",479,space,1.2769344000262208,None,19:53:29.451644,P2,2,2024-06-28_19h52.16.260,digit_span,2023.2.3,143.73288676384547,2024-06-28 19h52.34.479581 +0200,
0,0,0,0,8,0,8,0,0,0,0,0,55.97942119999789,,19:53:29.451644,,,,,,,,P2,2,2024-06-28_19h52.16.260,digit_span,2023.2.3,143.73288676384547,2024-06-28 19h52.34.479581 +0200,
0,0,0,0,8,0,8,0,1,0,1,0,57.08418330003042,,,,,,,,,,P2,2,2024-06-28_19h52.16.260,digit_span,2023.2.3,143.73288676384547,2024-06-28 19h52.34.479581 +0200,
0,0,0,0,8,0,8,0,2,0,2,0,58.18146039999556,,,19:53:33.651894,,,,,,,P2,2,2024-06-28_19h52.16.260,digit_span,2023.2.3,143.73288676384547,2024-06-28 19h52.34.479581 +0200,
0,0,0,0,8,0,8,0,,,,,,,,,"[3, 4, 8]",348,space,1.0317465999978594,None,19:53:34.790796,P2,2,2024-06-28_19h52.16.260,digit_span,2023.2.3,143.73288676384547,2024-06-28 19h52.34.479581 +0200,
0,0,0,0,9,0,9,0,0,0,0,0,61.322835200000554,,19:53:34.790796,,,,,,,,P2,2,2024-06-28_19h52.16.260,digit_span,2023.2.3,143.73288676384547,2024-06-28 19h52.34.479581 +0200,
0,0,0,0,9,0,9,0,1,0,1,0,62.42448669997975,,,,,,,,,,P2,2,2024-06-28_19h52.16.260,digit_span,2023.2.3,143.73288676384547,2024-06-28 19h52.34.479581 +0200,
0,0,0,0,9,0,9,0,2,0,2,0,63.52200370002538,,,19:53:38.991723,,,,,,,P2,2,2024-06-28_19h52.16.260,digit_span,2023.2.3,143.73288676384547,2024-06-28 19h52.34.479581 +0200,
0,0,0,0,9,0,9,0,,,,,,,,,"[3, 8, 9]",389 ,space,0.8886438999907114,None,19:53:39.992450,P2,2,2024-06-28_19h52.16.260,digit_span,2023.2.3,143.73288676384547,2024-06-28 19h52.34.479581 +0200,
0,0,0,0,10,0,10,0,0,0,0,0,66.52403480000794,,19:53:39.992450,,,,,,,,P2,2,2024-06-28_19h52.16.260,digit_span,2023.2.3,143.73288676384547,2024-06-28 19h52.34.479581 +0200,
0,0,0,0,10,0,10,0,1,0,1,0,67.62567510001827,,,,,,,,,,P2,2,2024-06-28_19h52.16.260,digit_span,2023.2.3,143.73288676384547,2024-06-28 19h52.34.479581 +0200,
0,0,0,0,10,0,10,0,2,0,2,0,68.72293510002783,,,19:53:44.192431,,,,,,,P2,2,2024-06-28_19h52.16.260,digit_span,2023.2.3,143.73288676384547,2024-06-28 19h52.34.479581 +0200,
0,0,0,0,10,0,10,0,,,,,,,,,"[8, 0, 6]",806,space,1.6699698000447825,None,19:53:45.972232,P2,2,2024-06-28_19h52.16.260,digit_span,2023.2.3,143.73288676384547,2024-06-28 19h52.34.479581 +0200,
0,0,0,0,11,0,11,0,0,0,0,0,72.50068789999932,,19:53:45.972232,,,,,,,,P2,2,2024-06-28_19h52.16.260,digit_span,2023.2.3,143.73288676384547,2024-06-28 19h52.34.479581 +0200,
0,0,0,0,11,0,11,0,1,0,1,0,73.60440240002936,,,,,,,,,,P2,2,2024-06-28_19h52.16.260,digit_span,2023.2.3,143.73288676384547,2024-06-28 19h52.34.479581 +0200,
0,0,0,0,11,0,11,0,2,0,2,0,74.70201579999411,,,19:53:50.171835,,,,,,,P2,2,2024-06-28_19h52.16.260,digit_span,2023.2.3,143.73288676384547,2024-06-28 19h52.34.479581 +0200,
0,0,0,0,11,0,11,0,,,,,,,,,"[3, 8, 1]",812,space,3.877723999961745,None,19:53:54.158639,P2,2,2024-06-28_19h52.16.260,digit_span,2023.2.3,143.73288676384547,2024-06-28 19h52.34.479581 +0200,
0,0,0,0,12,0,12,0,0,0,0,0,80.68805539997993,,19:53:54.159634,,,,,,,,P2,2,2024-06-28_19h52.16.260,digit_span,2023.2.3,143.73288676384547,2024-06-28 19h52.34.479581 +0200,
0,0,0,0,12,0,12,0,1,0,1,0,81.79232240002602,,,,,,,,,,P2,2,2024-06-28_19h52.16.260,digit_span,2023.2.3,143.73288676384547,2024-06-28 19h52.34.479581 +0200,
0,0,0,0,12,0,12,0,2,0,2,0,82.8894059000304,,,19:53:58.359297,,,,,,,P2,2,2024-06-28_19h52.16.260,digit_span,2023.2.3,143.73288676384547,2024-06-28 19h52.34.479581 +0200,
0,0,0,0,12,0,12,0,,,,,,,,,"[6, 3, 5]",458 ,space,2.264962400018703,None,19:54:00.734580,P2,2,2024-06-28_19h52.16.260,digit_span,2023.2.3,143.73288676384547,2024-06-28 19h52.34.479581 +0200,
0,0,0,0,13,0,13,0,0,0,0,0,87.2658426000271,,19:54:00.734580,,,,,,,,P2,2,2024-06-28_19h52.16.260,digit_span,2023.2.3,143.73288676384547,2024-06-28 19h52.34.479581 +0200,
0,0,0,0,13,0,13,0,1,0,1,0,88.36855369998375,,,,,,,,,,P2,2,2024-06-28_19h52.16.260,digit_span,2023.2.3,143.73288676384547,2024-06-28 19h52.34.479581 +0200,
0,0,0,0,13,0,13,0,2,0,2,0,89.46513100003358,,,19:54:04.934709,,,,,,,P2,2,2024-06-28_19h52.16.260,digit_span,2023.2.3,143.73288676384547,2024-06-28 19h52.34.479581 +0200,
0,0,0,0,13,0,13,0,,,,,,,,,"[1, 2, 8]",128 ,space,4.534169199992903,None,19:54:09.580921,P2,2,2024-06-28_19h52.16.260,digit_span,2023.2.3,143.73288676384547,2024-06-28 19h52.34.479581 +0200,
0,0,0,0,14,0,14,0,0,0,0,0,96.11112860002322,,19:54:09.580921,,,,,,,,P2,2,2024-06-28_19h52.16.260,digit_span,2023.2.3,143.73288676384547,2024-06-28 19h52.34.479581 +0200,
0,0,0,0,14,0,14,0,1,0,1,0,97.21552510000765,,,,,,,,,,P2,2,2024-06-28_19h52.16.260,digit_span,2023.2.3,143.73288676384547,2024-06-28 19h52.34.479581 +0200,
0,0,0,0,14,0,14,0,2,0,2,0,98.31283110001823,,,19:54:13.782989,,,,,,,P2,2,2024-06-28_19h52.16.260,digit_span,2023.2.3,143.73288676384547,2024-06-28 19h52.34.479581 +0200,
0,0,0,0,14,0,14,0,,,,,,,,,"[3, 1, 7]",217 ,space,2.144687799969688,None,19:54:16.040354,P2,2,2024-06-28_19h52.16.260,digit_span,2023.2.3,143.73288676384547,2024-06-28 19h52.34.479581 +0200,
0,0,0,0,,,,,,,,,,,,,,,,,,,P2,2,2024-06-28_19h52.16.260,digit_span,2023.2.3,143.73288676384547,2024-06-28 19h52.34.479581 +0200,
1,0,1,0,0,0,0,0,0,0,0,0,105.87467029999243,,19:54:19.346230,,,,,,,,P2,2,2024-06-28_19h52.16.260,digit_span,2023.2.3,143.73288676384547,2024-06-28 19h52.34.479581 +0200,
1,0,1,0,0,0,0,0,1,0,1,0,106.97852970001986,,,,,,,,,,P2,2,2024-06-28_19h52.16.260,digit_span,2023.2.3,143.73288676384547,2024-06-28 19h52.34.479581 +0200,
1,0,1,0,0,0,0,0,2,0,2,0,108.07618979999097,,,,,,,,,,P2,2,2024-06-28_19h52.16.260,digit_span,2023.2.3,143.73288676384547,2024-06-28 19h52.34.479581 +0200,
1,0,1,0,0,0,0,0,3,0,3,0,109.18041069997707,,,,,,,,,,P2,2,2024-06-28_19h52.16.260,digit_span,2023.2.3,143.73288676384547,2024-06-28 19h52.34.479581 +0200,
1,0,1,0,0,0,0,0,4,0,4,0,110.28068419999909,,,,,,,,,,P2,2,2024-06-28_19h52.16.260,digit_span,2023.2.3,143.73288676384547,2024-06-28 19h52.34.479581 +0200,
1,0,1,0,0,0,0,0,5,0,5,0,111.38179210003,,,,,,,,,,P2,2,2024-06-28_19h52.16.260,digit_span,2023.2.3,143.73288676384547,2024-06-28 19h52.34.479581 +0200,
1,0,1,0,0,0,0,0,6,0,6,0,112.47904760000529,,,,,,,,,,P2,2,2024-06-28_19h52.16.260,digit_span,2023.2.3,143.73288676384547,2024-06-28 19h52.34.479581 +0200,
1,0,1,0,0,0,0,0,7,0,7,0,113.57604590000119,,,19:54:29.046283,,,,,,,P2,2,2024-06-28_19h52.16.260,digit_span,2023.2.3,143.73288676384547,2024-06-28 19h52.34.479581 +0200,
1,0,1,0,0,0,0,0,,,,,,,,,"[2, 3, 6, 5, 4, 0, 1, 8]",,space,-0.5441064999904484,0.15059229999314994,19:54:29.152308,P2,2,2024-06-28_19h52.16.260,digit_span,2023.2.3,143.73288676384547,2024-06-28 19h52.34.479581 +0200,
1,0,1,0,1,0,1,0,0,0,0,0,115.68013440002687,,19:54:29.152308,,,,,,,,P2,2,2024-06-28_19h52.16.260,digit_span,2023.2.3,143.73288676384547,2024-06-28 19h52.34.479581 +0200,
1,0,1,0,1,0,1,0,1,0,1,0,116.7847229000181,,,,,,,,,,P2,2,2024-06-28_19h52.16.260,digit_span,2023.2.3,143.73288676384547,2024-06-28 19h52.34.479581 +0200,
1,0,1,0,1,0,1,0,2,0,2,0,117.88841840001987,,,,,,,,,,P2,2,2024-06-28_19h52.16.260,digit_span,2023.2.3,143.73288676384547,2024-06-28 19h52.34.479581 +0200,
1,0,1,0,1,0,1,0,3,0,3,0,118.98569790000329,,,,,,,,,,P2,2,2024-06-28_19h52.16.260,digit_span,2023.2.3,143.73288676384547,2024-06-28 19h52.34.479581 +0200,
1,0,1,0,1,0,1,0,4,0,4,0,120.0832796000177,,,,,,,,,,P2,2,2024-06-28_19h52.16.260,digit_span,2023.2.3,143.73288676384547,2024-06-28 19h52.34.479581 +0200,
1,0,1,0,1,0,1,0,5,0,5,0,121.18767860002117,,,,,,,,,,P2,2,2024-06-28_19h52.16.260,digit_span,2023.2.3,143.73288676384547,2024-06-28 19h52.34.479581 +0200,
1,0,1,0,1,0,1,0,6,0,6,0,122.28379130002577,,,,,,,,,,P2,2,2024-06-28_19h52.16.260,digit_span,2023.2.3,143.73288676384547,2024-06-28 19h52.34.479581 +0200,
1,0,1,0,1,0,1,0,7,0,7,0,123.38780269998824,,,19:54:38.858147,,,,,,,P2,2,2024-06-28_19h52.16.260,digit_span,2023.2.3,143.73288676384547,2024-06-28 19h52.34.479581 +0200,
1,0,1,0,1,0,1,0,,,,,,,,,"[3, 7, 2, 4, 5, 8, 1, 9]",,space,-8.884954600012861,0.14926540001761168,19:54:38.959123,P2,2,2024-06-28_19h52.16.260,digit_span,2023.2.3,143.73288676384547,2024-06-28 19h52.34.479581 +0200,
1,0,1,0,2,0,2,0,0,0,0,0,125.48641200002749,,19:54:38.959123,,,,,,,,P2,2,2024-06-28_19h52.16.260,digit_span,2023.2.3,143.73288676384547,2024-06-28 19h52.34.479581 +0200,
1,0,1,0,2,0,2,0,1,0,1,0,126.58967369998572,,,,,,,,,,P2,2,2024-06-28_19h52.16.260,digit_span,2023.2.3,143.73288676384547,2024-06-28 19h52.34.479581 +0200,
1,0,1,0,2,0,2,0,2,0,2,0,127.6944683000329,,,,,,,,,,P2,2,2024-06-28_19h52.16.260,digit_span,2023.2.3,143.73288676384547,2024-06-28 19h52.34.479581 +0200,
1,0,1,0,2,0,2,0,3,0,3,0,128.79170429997612,,,,,,,,,,P2,2,2024-06-28_19h52.16.260,digit_span,2023.2.3,143.73288676384547,2024-06-28 19h52.34.479581 +0200,
1,0,1,0,2,0,2,0,4,0,4,0,129.89499529998284,,,,,,,,,,P2,2,2024-06-28_19h52.16.260,digit_span,2023.2.3,143.73288676384547,2024-06-28 19h52.34.479581 +0200,
1,0,1,0,2,0,2,0,5,0,5,0,130.99211799999466,,,,,,,,,,P2,2,2024-06-28_19h52.16.260,digit_span,2023.2.3,143.73288676384547,2024-06-28 19h52.34.479581 +0200,
1,0,1,0,2,0,2,0,6,0,6,0,132.0892192000174,,,,,,,,,,P2,2,2024-06-28_19h52.16.260,digit_span,2023.2.3,143.73288676384547,2024-06-28 19h52.34.479581 +0200,
1,0,1,0,2,0,2,0,7,0,7,0,133.1931254999945,,,19:54:48.663683,,,,,,,P2,2,2024-06-28_19h52.16.260,digit_span,2023.2.3,143.73288676384547,2024-06-28 19h52.34.479581 +0200,
1,0,1,0,2,0,2,0,,,,,,,,,"[8, 9, 1, 7, 2, 4, 6, 3]",31723421,space,3.3127660999889486,None,19:54:52.074610,P2,2,2024-06-28_19h52.16.260,digit_span,2023.2.3,143.73288676384547,2024-06-28 19h52.34.479581 +0200,
1,0,1,0,3,0,3,0,0,0,0,0,138.60360129998298,,19:54:52.074610,,,,,,,,P2,2,2024-06-28_19h52.16.260,digit_span,2023.2.3,143.73288676384547,2024-06-28 19h52.34.479581 +0200,
1,0,1,0,3,0,3,0,1,0,1,0,139.7075939999777,,,,,,,,,,P2,2,2024-06-28_19h52.16.260,digit_span,2023.2.3,143.73288676384547,2024-06-28 19h52.34.479581 +0200,
1,0,1,0,3,0,3,0,2,0,2,0,140.81159970001318,,,,,,,,,,P2,2,2024-06-28_19h52.16.260,digit_span,2023.2.3,143.73288676384547,2024-06-28 19h52.34.479581 +0200,
1,0,1,0,3,0,3,0,3,0,3,0,141.90868240001146,,,,,,,,,,P2,2,2024-06-28_19h52.16.260,digit_span,2023.2.3,143.73288676384547,2024-06-28 19h52.34.479581 +0200,
1,0,1,0,3,0,3,0,4,0,4,0,143.00595750001958,,,,,,,,,,P2,2,2024-06-28_19h52.16.260,digit_span,2023.2.3,143.73288676384547,2024-06-28 19h52.34.479581 +0200,
1,0,1,0,3,0,3,0,5,0,5,0,144.11190720001468,,,,,,,,,,P2,2,2024-06-28_19h52.16.260,digit_span,2023.2.3,143.73288676384547,2024-06-28 19h52.34.479581 +0200,
1,0,1,0,3,0,3,0,6,0,6,0,145.20692040002905,,,,,,,,,,P2,2,2024-06-28_19h52.16.260,digit_span,2023.2.3,143.73288676384547,2024-06-28 19h52.34.479581 +0200,
1,0,1,0,3,0,3,0,7,0,7,0,146.31163720000768,,,19:55:01.781613,,,,,,,P2,2,2024-06-28_19h52.16.260,digit_span,2023.2.3,143.73288676384547,2024-06-28 19h52.34.479581 +0200,
1,0,1,0,3,0,3,0,,,,,,,,,"[0, 9, 5, 2, 6, 7, 3, 1]",2451 ,space,2.430831699981354,None,19:55:04.316572,P2,2,2024-06-28_19h52.16.260,digit_span,2023.2.3,143.73288676384547,2024-06-28 19h52.34.479581 +0200,
1,0,1,0,4,0,4,0,0,0,0,0,150.8472935000318,,19:55:04.316572,,,,,,,,P2,2,2024-06-28_19h52.16.260,digit_span,2023.2.3,143.73288676384547,2024-06-28 19h52.34.479581 +0200,
1,0,1,0,4,0,4,0,1,0,1,0,151.95388560002903,,,,,,,,,,P2,2,2024-06-28_19h52.16.260,digit_span,2023.2.3,143.73288676384547,2024-06-28 19h52.34.479581 +0200,
1,0,1,0,4,0,4,0,2,0,2,0,153.0473141000257,,,,,,,,,,P2,2,2024-06-28_19h52.16.260,digit_span,2023.2.3,143.73288676384547,2024-06-28 19h52.34.479581 +0200,
1,0,1,0,4,0,4,0,3,0,3,0,154.15145070001017,,,,,,,,,,P2,2,2024-06-28_19h52.16.260,digit_span,2023.2.3,143.73288676384547,2024-06-28 19h52.34.479581 +0200,
1,0,1,0,4,0,4,0,4,0,4,0,155.24802390002878,,,,,,,,,,P2,2,2024-06-28_19h52.16.260,digit_span,2023.2.3,143.73288676384547,2024-06-28 19h52.34.479581 +0200,
1,0,1,0,4,0,4,0,5,0,5,0,156.3528044000268,,,,,,,,,,P2,2,2024-06-28_19h52.16.260,digit_span,2023.2.3,143.73288676384547,2024-06-28 19h52.34.479581 +0200,
1,0,1,0,4,0,4,0,6,0,6,0,157.45004610001342,,,,,,,,,,P2,2,2024-06-28_19h52.16.260,digit_span,2023.2.3,143.73288676384547,2024-06-28 19h52.34.479581 +0200,
1,0,1,0,4,0,4,0,7,0,7,0,158.55370970000513,,,19:55:14.016742,,,,,,,P2,2,2024-06-28_19h52.16.260,digit_span,2023.2.3,143.73288676384547,2024-06-28 19h52.34.479581 +0200,
1,0,1,0,4,0,4,0,,,,,,,,,"[9, 5, 6, 7, 0, 2, 3, 4]",2126781,space,8.072664999985136,None,19:55:22.199190,P2,2,2024-06-28_19h52.16.260,digit_span,2023.2.3,143.73288676384547,2024-06-28 19h52.34.479581 +0200,
1,0,1,0,5,0,5,0,0,0,0,0,168.72772149997763,,19:55:22.199190,,,,,,,,P2,2,2024-06-28_19h52.16.260,digit_span,2023.2.3,143.73288676384547,2024-06-28 19h52.34.479581 +0200,
1,0,1,0,5,0,5,0,1,0,1,0,169.83138510002755,,,,,,,,,,P2,2,2024-06-28_19h52.16.260,digit_span,2023.2.3,143.73288676384547,2024-06-28 19h52.34.479581 +0200,
1,0,1,0,5,0,5,0,2,0,2,0,170.9370809000102,,,,,,,,,,P2,2,2024-06-28_19h52.16.260,digit_span,2023.2.3,143.73288676384547,2024-06-28 19h52.34.479581 +0200,
1,0,1,0,5,0,5,0,3,0,3,0,172.03292339999462,,,,,,,,,,P2,2,2024-06-28_19h52.16.260,digit_span,2023.2.3,143.73288676384547,2024-06-28 19h52.34.479581 +0200,
1,0,1,0,5,0,5,0,4,0,4,0,173.13015630003065,,,,,,,,,,P2,2,2024-06-28_19h52.16.260,digit_span,2023.2.3,143.73288676384547,2024-06-28 19h52.34.479581 +0200,
1,0,1,0,5,0,5,0,5,0,5,0,174.23461129999487,,,,,,,,,,P2,2,2024-06-28_19h52.16.260,digit_span,2023.2.3,143.73288676384547,2024-06-28 19h52.34.479581 +0200,
1,0,1,0,5,0,5,0,6,0,6,0,175.33226809999906,,,,,,,,,,P2,2,2024-06-28_19h52.16.260,digit_span,2023.2.3,143.73288676384547,2024-06-28 19h52.34.479581 +0200,
1,0,1,0,5,0,5,0,7,0,7,0,176.43666419998044,,,19:55:31.905774,,,,,,,P2,2,2024-06-28_19h52.16.260,digit_span,2023.2.3,143.73288676384547,2024-06-28 19h52.34.479581 +0200,
1,0,1,0,5,0,5,0,,,,,,,,,"[2, 9, 5, 7, 3, 1, 4, 0]",273140 ,space,1.7355799000361003,None,19:55:33.746602,P2,2,2024-06-28_19h52.16.260,digit_span,2023.2.3,143.73288676384547,2024-06-28 19h52.34.479581 +0200,
1,0,1,0,6,0,6,0,0,0,0,0,180.27603730000556,,19:55:33.746602,,,,,,,,P2,2,2024-06-28_19h52.16.260,digit_span,2023.2.3,143.73288676384547,2024-06-28 19h52.34.479581 +0200,
1,0,1,0,6,0,6,0,1,0,1,0,181.37976799998432,,,,,,,,,,P2,2,2024-06-28_19h52.16.260,digit_span,2023.2.3,143.73288676384547,2024-06-28 19h52.34.479581 +0200,
1,0,1,0,6,0,6,0,2,0,2,0,182.47707700001774,,,,,,,,,,P2,2,2024-06-28_19h52.16.260,digit_span,2023.2.3,143.73288676384547,2024-06-28 19h52.34.479581 +0200,
1,0,1,0,6,0,6,0,3,0,3,0,183.58061050000833,,,,,,,,,,P2,2,2024-06-28_19h52.16.260,digit_span,2023.2.3,143.73288676384547,2024-06-28 19h52.34.479581 +0200,
1,0,1,0,6,0,6,0,4,0,4,0,184.67866149998736,,,,,,,,,,P2,2,2024-06-28_19h52.16.260,digit_span,2023.2.3,143.73288676384547,2024-06-28 19h52.34.479581 +0200,
1,0,1,0,6,0,6,0,5,0,5,0,185.78278330003377,,,,,,,,,,P2,2,2024-06-28_19h52.16.260,digit_span,2023.2.3,143.73288676384547,2024-06-28 19h52.34.479581 +0200,
1,0,1,0,6,0,6,0,6,0,6,0,186.87961190001806,,,,,,,,,,P2,2,2024-06-28_19h52.16.260,digit_span,2023.2.3,143.73288676384547,2024-06-28 19h52.34.479581 +0200,
1,0,1,0,6,0,6,0,7,0,7,0,187.98340680002002,,,19:55:43.447057,,,,,,,P2,2,2024-06-28_19h52.16.260,digit_span,2023.2.3,143.73288676384547,2024-06-28 19h52.34.479581 +0200,
1,0,1,0,6,0,6,0,,,,,,,,,"[6, 4, 0, 7, 1, 3, 8, 9]",640389,space,5.399444599985145,None,19:55:48.954276,P2,2,2024-06-28_19h52.16.260,digit_span,2023.2.3,143.73288676384547,2024-06-28 19h52.34.479581 +0200,
1,0,1,0,7,0,7,0,0,0,0,0,195.4834004000295,,19:55:48.955274,,,,,,,,P2,2,2024-06-28_19h52.16.260,digit_span,2023.2.3,143.73288676384547,2024-06-28 19h52.34.479581 +0200,
1,0,1,0,7,0,7,0,1,0,1,0,196.58742280001752,,,,,,,,,,P2,2,2024-06-28_19h52.16.260,digit_span,2023.2.3,143.73288676384547,2024-06-28 19h52.34.479581 +0200,
1,0,1,0,7,0,7,0,2,0,2,0,197.6849310999969,,,,,,,,,,P2,2,2024-06-28_19h52.16.260,digit_span,2023.2.3,143.73288676384547,2024-06-28 19h52.34.479581 +0200,
1,0,1,0,7,0,7,0,3,0,3,0,198.791220300016,,,,,,,,,,P2,2,2024-06-28_19h52.16.260,digit_span,2023.2.3,143.73288676384547,2024-06-28 19h52.34.479581 +0200,
1,0,1,0,7,0,7,0,4,0,4,0,199.88678130001063,,,,,,,,,,P2,2,2024-06-28_19h52.16.260,digit_span,2023.2.3,143.73288676384547,2024-06-28 19h52.34.479581 +0200,
1,0,1,0,7,0,7,0,5,0,5,0,200.9906243000296,,,,,,,,,,P2,2,2024-06-28_19h52.16.260,digit_span,2023.2.3,143.73288676384547,2024-06-28 19h52.34.479581 +0200,
1,0,1,0,7,0,7,0,6,0,6,0,202.08781420002924,,,,,,,,,,P2,2,2024-06-28_19h52.16.260,digit_span,2023.2.3,143.73288676384547,2024-06-28 19h52.34.479581 +0200,
1,0,1,0,7,0,7,0,7,0,7,0,203.18586480000522,,,19:55:58.655168,,,,,,,P2,2,2024-06-28_19h52.16.260,digit_span,2023.2.3,143.73288676384547,2024-06-28 19h52.34.479581 +0200,
1,0,1,0,7,0,7,0,,,,,,,,,"[4, 5, 1, 7, 3, 8, 2, 6]",321542 ,space,2.9312909999862313,None,19:56:01.697516,P2,2,2024-06-28_19h52.16.260,digit_span,2023.2.3,143.73288676384547,2024-06-28 19h52.34.479581 +0200,
1,0,1,0,8,0,8,0,0,0,0,0,208.22727470000973,,19:56:01.697516,,,,,,,,P2,2,2024-06-28_19h52.16.260,digit_span,2023.2.3,143.73288676384547,2024-06-28 19h52.34.479581 +0200,
1,0,1,0,8,0,8,0,1,0,1,0,209.33061000000453,,,,,,,,,,P2,2,2024-06-28_19h52.16.260,digit_span,2023.2.3,143.73288676384547,2024-06-28 19h52.34.479581 +0200,
1,0,1,0,8,0,8,0,2,0,2,0,210.4273517000256,,,,,,,,,,P2,2,2024-06-28_19h52.16.260,digit_span,2023.2.3,143.73288676384547,2024-06-28 19h52.34.479581 +0200,
1,0,1,0,8,0,8,0,3,0,3,0,211.53212779999012,,,,,,,,,,P2,2,2024-06-28_19h52.16.260,digit_span,2023.2.3,143.73288676384547,2024-06-28 19h52.34.479581 +0200,
1,0,1,0,8,0,8,0,4,0,4,0,212.6310515999794,,,,,,,,,,P2,2,2024-06-28_19h52.16.260,digit_span,2023.2.3,143.73288676384547,2024-06-28 19h52.34.479581 +0200,
1,0,1,0,8,0,8,0,5,0,5,0,213.73316330002854,,,,,,,,,,P2,2,2024-06-28_19h52.16.260,digit_span,2023.2.3,143.73288676384547,2024-06-28 19h52.34.479581 +0200,
1,0,1,0,8,0,8,0,6,0,6,0,214.83013489999576,,,,,,,,,,P2,2,2024-06-28_19h52.16.260,digit_span,2023.2.3,143.73288676384547,2024-06-28 19h52.34.479581 +0200,
1,0,1,0,8,0,8,0,7,0,7,0,215.92793830001028,,,19:56:11.397850,,,,,,,P2,2,2024-06-28_19h52.16.260,digit_span,2023.2.3,143.73288676384547,2024-06-28 19h52.34.479581 +0200,
1,0,1,0,8,0,8,0,,,,,,,,,"[3, 9, 6, 7, 4, 0, 8, 2]",325043,space,2.568684600002598,None,19:56:14.073026,P2,2,2024-06-28_19h52.16.260,digit_span,2023.2.3,143.73288676384547,2024-06-28 19h52.34.479581 +0200,
1,0,1,0,9,0,9,0,0,0,0,0,220.6011964000063,,19:56:14.073026,,,,,,,,P2,2,2024-06-28_19h52.16.260,digit_span,2023.2.3,143.73288676384547,2024-06-28 19h52.34.479581 +0200,
1,0,1,0,9,0,9,0,1,0,1,0,221.7054362000199,,,,,,,,,,P2,2,2024-06-28_19h52.16.260,digit_span,2023.2.3,143.73288676384547,2024-06-28 19h52.34.479581 +0200,
1,0,1,0,9,0,9,0,2,0,2,0,222.8092085000244,,,,,,,,,,P2,2,2024-06-28_19h52.16.260,digit_span,2023.2.3,143.73288676384547,2024-06-28 19h52.34.479581 +0200,
1,0,1,0,9,0,9,0,3,0,3,0,223.90669959998922,,,,,,,,,,P2,2,2024-06-28_19h52.16.260,digit_span,2023.2.3,143.73288676384547,2024-06-28 19h52.34.479581 +0200,
1,0,1,0,9,0,9,0,4,0,4,0,225.00728930003243,,,,,,,,,,P2,2,2024-06-28_19h52.16.260,digit_span,2023.2.3,143.73288676384547,2024-06-28 19h52.34.479581 +0200,
1,0,1,0,9,0,9,0,5,0,5,0,226.10857169999508,,,,,,,,,,P2,2,2024-06-28_19h52.16.260,digit_span,2023.2.3,143.73288676384547,2024-06-28 19h52.34.479581 +0200,
1,0,1,0,9,0,9,0,6,0,6,0,227.2045718000154,,,,,,,,,,P2,2,2024-06-28_19h52.16.260,digit_span,2023.2.3,143.73288676384547,2024-06-28 19h52.34.479581 +0200,
1,0,1,0,9,0,9,0,7,0,7,0,228.3089161000098,,,19:56:23.773165,,,,,,,P2,2,2024-06-28_19h52.16.260,digit_span,2023.2.3,143.73288676384547,2024-06-28 19h52.34.479581 +0200,
1,0,1,0,9,0,9,0,,,,,,,,,"[9, 4, 8, 0, 3, 2, 1, 6]",9482 ,space,5.083659099997021,None,19:56:28.967534,P2,2,2024-06-28_19h52.16.260,digit_span,2023.2.3,143.73288676384547,2024-06-28 19h52.34.479581 +0200,
1,0,1,0,10,0,10,0,0,0,0,0,235.4964512999868,,19:56:28.967534,,,,,,,,P2,2,2024-06-28_19h52.16.260,digit_span,2023.2.3,143.73288676384547,2024-06-28 19h52.34.479581 +0200,
1,0,1,0,10,0,10,0,1,0,1,0,236.6002720000106,,,,,,,,,,P2,2,2024-06-28_19h52.16.260,digit_span,2023.2.3,143.73288676384547,2024-06-28 19h52.34.479581 +0200,
1,0,1,0,10,0,10,0,2,0,2,0,237.69796479999786,,,,,,,,,,P2,2,2024-06-28_19h52.16.260,digit_span,2023.2.3,143.73288676384547,2024-06-28 19h52.34.479581 +0200,
1,0,1,0,10,0,10,0,3,0,3,0,238.8018705000286,,,,,,,,,,P2,2,2024-06-28_19h52.16.260,digit_span,2023.2.3,143.73288676384547,2024-06-28 19h52.34.479581 +0200,
1,0,1,0,10,0,10,0,4,0,4,0,239.898689499998,,,,,,,,,,P2,2,2024-06-28_19h52.16.260,digit_span,2023.2.3,143.73288676384547,2024-06-28 19h52.34.479581 +0200,
1,0,1,0,10,0,10,0,5,0,5,0,241.00451370002702,,,,,,,,,,P2,2,2024-06-28_19h52.16.260,digit_span,2023.2.3,143.73288676384547,2024-06-28 19h52.34.479581 +0200,
1,0,1,0,10,0,10,0,6,0,6,0,242.1008215000038,,,,,,,,,,P2,2,2024-06-28_19h52.16.260,digit_span,2023.2.3,143.73288676384547,2024-06-28 19h52.34.479581 +0200,
1,0,1,0,10,0,10,0,7,0,7,0,243.19810640002834,,,19:56:38.668325,,,,,,,P2,2,2024-06-28_19h52.16.260,digit_span,2023.2.3,143.73288676384547,2024-06-28 19h52.34.479581 +0200,
1,0,1,0,10,0,10,0,,,,,,,,,"[6, 5, 0, 8, 9, 3, 4, 2]",78789,space,9.85181940003531,None,19:56:48.626817,P2,2,2024-06-28_19h52.16.260,digit_span,2023.2.3,143.73288676384547,2024-06-28 19h52.34.479581 +0200,
1,0,1,0,11,0,11,0,0,0,0,0,255.15567399997963,,19:56:48.626817,,,,,,,,P2,2,2024-06-28_19h52.16.260,digit_span,2023.2.3,143.73288676384547,2024-06-28 19h52.34.479581 +0200,
1,0,1,0,11,0,11,0,1,0,1,0,256.26022960001137,,,,,,,,,,P2,2,2024-06-28_19h52.16.260,digit_span,2023.2.3,143.73288676384547,2024-06-28 19h52.34.479581 +0200,
1,0,1,0,11,0,11,0,2,0,2,0,257.35681040002964,,,,,,,,,,P2,2,2024-06-28_19h52.16.260,digit_span,2023.2.3,143.73288676384547,2024-06-28 19h52.34.479581 +0200,
1,0,1,0,11,0,11,0,3,0,3,0,258.46164160000626,,,,,,,,,,P2,2,2024-06-28_19h52.16.260,digit_span,2023.2.3,143.73288676384547,2024-06-28 19h52.34.479581 +0200,
1,0,1,0,11,0,11,0,4,0,4,0,259.55848940002033,,,,,,,,,,P2,2,2024-06-28_19h52.16.260,digit_span,2023.2.3,143.73288676384547,2024-06-28 19h52.34.479581 +0200,
1,0,1,0,11,0,11,0,5,0,5,0,260.6629815999768,,,,,,,,,,P2,2,2024-06-28_19h52.16.260,digit_span,2023.2.3,143.73288676384547,2024-06-28 19h52.34.479581 +0200,
1,0,1,0,11,0,11,0,6,0,6,0,261.7593386999797,,,,,,,,,,P2,2,2024-06-28_19h52.16.260,digit_span,2023.2.3,143.73288676384547,2024-06-28 19h52.34.479581 +0200,
1,0,1,0,11,0,11,0,7,0,7,0,262.85703940002713,,,19:56:58.327435,,,,,,,P2,2,2024-06-28_19h52.16.260,digit_span,2023.2.3,143.73288676384547,2024-06-28 19h52.34.479581 +0200,
1,0,1,0,11,0,11,0,,,,,,,,,"[9, 2, 4, 7, 1, 3, 6, 5]",24722,space,7.33615980000468,None,19:57:05.772380,P2,2,2024-06-28_19h52.16.260,digit_span,2023.2.3,143.73288676384547,2024-06-28 19h52.34.479581 +0200,
1,0,1,0,12,0,12,0,0,0,0,0,272.30593829997815,,19:57:05.772380,,,,,,,,P2,2,2024-06-28_19h52.16.260,digit_span,2023.2.3,143.73288676384547,2024-06-28 19h52.34.479581 +0200,
1,0,1,0,12,0,12,0,1,0,1,0,273.40488069999265,,,,,,,,,,P2,2,2024-06-28_19h52.16.260,digit_span,2023.2.3,143.73288676384547,2024-06-28 19h52.34.479581 +0200,
1,0,1,0,12,0,12,0,2,0,2,0,274.5023880000226,,,,,,,,,,P2,2,2024-06-28_19h52.16.260,digit_span,2023.2.3,143.73288676384547,2024-06-28 19h52.34.479581 +0200,
1,0,1,0,12,0,12,0,3,0,3,0,275.6096224000212,,,,,,,,,,P2,2,2024-06-28_19h52.16.260,digit_span,2023.2.3,143.73288676384547,2024-06-28 19h52.34.479581 +0200,
1,0,1,0,12,0,12,0,4,0,4,0,276.7037287999992,,,,,,,,,,P2,2,2024-06-28_19h52.16.260,digit_span,2023.2.3,143.73288676384547,2024-06-28 19h52.34.479581 +0200,
1,0,1,0,12,0,12,0,5,0,5,0,277.8078444999992,,,,,,,,,,P2,2,2024-06-28_19h52.16.260,digit_span,2023.2.3,143.73288676384547,2024-06-28 19h52.34.479581 +0200,
1,0,1,0,12,0,12,0,6,0,6,0,278.9055438999785,,,,,,,,,,P2,2,2024-06-28_19h52.16.260,digit_span,2023.2.3,143.73288676384547,2024-06-28 19h52.34.479581 +0200,
1,0,1,0,12,0,12,0,7,0,7,0,280.0046758999815,,,19:57:15.473371,,,,,,,P2,2,2024-06-28_19h52.16.260,digit_span,2023.2.3,143.73288676384547,2024-06-28 19h52.34.479581 +0200,
1,0,1,0,12,0,12,0,,,,,,,,,"[4, 0, 3, 8, 2, 9, 7, 5]",403829,space,6.565252300002612,None,19:57:22.146723,P2,2,2024-06-28_19h52.16.260,digit_span,2023.2.3,143.73288676384547,2024-06-28 19h52.34.479581 +0200,
1,0,1,0,13,0,13,0,0,0,0,0,288.67607940000016,,19:57:22.146723,,,,,,,,P2,2,2024-06-28_19h52.16.260,digit_span,2023.2.3,143.73288676384547,2024-06-28 19h52.34.479581 +0200,
1,0,1,0,13,0,13,0,1,0,1,0,289.7801913000294,,,,,,,,,,P2,2,2024-06-28_19h52.16.260,digit_span,2023.2.3,143.73288676384547,2024-06-28 19h52.34.479581 +0200,
1,0,1,0,13,0,13,0,2,0,2,0,290.8770456999773,,,,,,,,,,P2,2,2024-06-28_19h52.16.260,digit_span,2023.2.3,143.73288676384547,2024-06-28 19h52.34.479581 +0200,
1,0,1,0,13,0,13,0,3,0,3,0,291.980713500001,,,,,,,,,,P2,2,2024-06-28_19h52.16.260,digit_span,2023.2.3,143.73288676384547,2024-06-28 19h52.34.479581 +0200,
1,0,1,0,13,0,13,0,4,0,4,0,293.07891450001625,,,,,,,,,,P2,2,2024-06-28_19h52.16.260,digit_span,2023.2.3,143.73288676384547,2024-06-28 19h52.34.479581 +0200,
1,0,1,0,13,0,13,0,5,0,5,0,294.1824299999862,,,,,,,,,,P2,2,2024-06-28_19h52.16.260,digit_span,2023.2.3,143.73288676384547,2024-06-28 19h52.34.479581 +0200,
1,0,1,0,13,0,13,0,6,0,6,0,295.2800103999907,,,,,,,,,,P2,2,2024-06-28_19h52.16.260,digit_span,2023.2.3,143.73288676384547,2024-06-28 19h52.34.479581 +0200,
1,0,1,0,13,0,13,0,7,0,7,0,296.3772003999911,,,19:57:31.847388,,,,,,,P2,2,2024-06-28_19h52.16.260,digit_span,2023.2.3,143.73288676384547,2024-06-28 19h52.34.479581 +0200,
1,0,1,0,13,0,13,0,,,,,,,,,"[5, 1, 8, 0, 3, 7, 2, 9]",5180729 ,space,3.396318099985365,None,19:57:35.354927,P2,2,2024-06-28_19h52.16.260,digit_span,2023.2.3,143.73288676384547,2024-06-28 19h52.34.479581 +0200,
1,0,1,0,14,0,14,0,0,0,0,0,301.88467390002916,,19:57:35.354927,,,,,,,,P2,2,2024-06-28_19h52.16.260,digit_span,2023.2.3,143.73288676384547,2024-06-28 19h52.34.479581 +0200,
1,0,1,0,14,0,14,0,1,0,1,0,302.9883842000272,,,,,,,,,,P2,2,2024-06-28_19h52.16.260,digit_span,2023.2.3,143.73288676384547,2024-06-28 19h52.34.479581 +0200,
1,0,1,0,14,0,14,0,2,0,2,0,304.085027299996,,,,,,,,,,P2,2,2024-06-28_19h52.16.260,digit_span,2023.2.3,143.73288676384547,2024-06-28 19h52.34.479581 +0200,
1,0,1,0,14,0,14,0,3,0,3,0,305.1895247999928,,,,,,,,,,P2,2,2024-06-28_19h52.16.260,digit_span,2023.2.3,143.73288676384547,2024-06-28 19h52.34.479581 +0200,
1,0,1,0,14,0,14,0,4,0,4,0,306.28684220003197,,,,,,,,,,P2,2,2024-06-28_19h52.16.260,digit_span,2023.2.3,143.73288676384547,2024-06-28 19h52.34.479581 +0200,
1,0,1,0,14,0,14,0,5,0,5,0,307.3920892000315,,,,,,,,,,P2,2,2024-06-28_19h52.16.260,digit_span,2023.2.3,143.73288676384547,2024-06-28 19h52.34.479581 +0200,
1,0,1,0,14,0,14,0,6,0,6,0,308.4880548000219,,,,,,,,,,P2,2,2024-06-28_19h52.16.260,digit_span,2023.2.3,143.73288676384547,2024-06-28 19h52.34.479581 +0200,
1,0,1,0,14,0,14,0,7,0,7,0,309.5851628999808,,,19:57:45.055843,,,,,,,P2,2,2024-06-28_19h52.16.260,digit_span,2023.2.3,143.73288676384547,2024-06-28 19h52.34.479581 +0200,
1,0,1,0,14,0,14,0,,,,,,,,,"[1, 9, 4, 0, 7, 6, 3, 5]",192470,space,3.0363237999845296,None,19:57:48.201585,P2,2,2024-06-28_19h52.16.260,digit_span,2023.2.3,143.73288676384547,2024-06-28 19h52.34.479581 +0200,
1,0,1,0,,,,,,,,,,,,,,,,,,,P2,2,2024-06-28_19h52.16.260,digit_span,2023.2.3,143.73288676384547,2024-06-28 19h52.34.479581 +0200,
2,0,2,0,0,0,0,0,0,0,0,0,315.3767483999836,,19:57:48.848335,,,,,,,,P2,2,2024-06-28_19h52.16.260,digit_span,2023.2.3,143.73288676384547,2024-06-28 19h52.34.479581 +0200,
2,0,2,0,0,0,0,0,1,0,1,0,316.48091959999874,,,,,,,,,,P2,2,2024-06-28_19h52.16.260,digit_span,2023.2.3,143.73288676384547,2024-06-28 19h52.34.479581 +0200,
2,0,2,0,0,0,0,0,2,0,2,0,317.5782344000181,,,,,,,,,,P2,2,2024-06-28_19h52.16.260,digit_span,2023.2.3,143.73288676384547,2024-06-28 19h52.34.479581 +0200,
2,0,2,0,0,0,0,0,3,0,3,0,318.6822751000291,,,,,,,,,,P2,2,2024-06-28_19h52.16.260,digit_span,2023.2.3,143.73288676384547,2024-06-28 19h52.34.479581 +0200,
2,0,2,0,0,0,0,0,4,0,4,0,319.7792410000111,,,19:57:55.249760,,,,,,,P2,2,2024-06-28_19h52.16.260,digit_span,2023.2.3,143.73288676384547,2024-06-28 19h52.34.479581 +0200,
2,0,2,0,0,0,0,0,,,,,,,,,"[3, 9, 7, 1, 5]",39715,space,2.8090081000118516,None,19:57:58.167160,P2,2,2024-06-28_19h52.16.260,digit_span,2023.2.3,143.73288676384547,2024-06-28 19h52.34.479581 +0200,
2,0,2,0,1,0,1,0,0,0,0,0,324.6958952000132,,19:57:58.167160,,,,,,,,P2,2,2024-06-28_19h52.16.260,digit_span,2023.2.3,143.73288676384547,2024-06-28 19h52.34.479581 +0200,
2,0,2,0,1,0,1,0,1,0,1,0,325.79973869997775,,,,,,,,,,P2,2,2024-06-28_19h52.16.260,digit_span,2023.2.3,143.73288676384547,2024-06-28 19h52.34.479581 +0200,
2,0,2,0,1,0,1,0,2,0,2,0,326.8974769000197,,,,,,,,,,P2,2,2024-06-28_19h52.16.260,digit_span,2023.2.3,143.73288676384547,2024-06-28 19h52.34.479581 +0200,
2,0,2,0,1,0,1,0,3,0,3,0,328.0011835999903,,,,,,,,,,P2,2,2024-06-28_19h52.16.260,digit_span,2023.2.3,143.73288676384547,2024-06-28 19h52.34.479581 +0200,
2,0,2,0,1,0,1,0,4,0,4,0,329.10105190001195,,,19:58:04.568746,,,,,,,P2,2,2024-06-28_19h52.16.260,digit_span,2023.2.3,143.73288676384547,2024-06-28 19h52.34.479581 +0200,
2,0,2,0,1,0,1,0,,,,,,,,,"[1, 0, 5, 2, 9]",0529 ,space,1.8349594000028446,None,19:58:06.514108,P2,2,2024-06-28_19h52.16.260,digit_span,2023.2.3,143.73288676384547,2024-06-28 19h52.34.479581 +0200,
2,0,2,0,2,0,2,0,0,0,0,0,333.0450212000287,,19:58:06.514108,,,,,,,,P2,2,2024-06-28_19h52.16.260,digit_span,2023.2.3,143.73288676384547,2024-06-28 19h52.34.479581 +0200,
2,0,2,0,2,0,2,0,1,0,1,0,334.1470471000066,,,,,,,,,,P2,2,2024-06-28_19h52.16.260,digit_span,2023.2.3,143.73288676384547,2024-06-28 19h52.34.479581 +0200,
2,0,2,0,2,0,2,0,2,0,2,0,335.24441909999587,,,,,,,,,,P2,2,2024-06-28_19h52.16.260,digit_span,2023.2.3,143.73288676384547,2024-06-28 19h52.34.479581 +0200,
2,0,2,0,2,0,2,0,3,0,3,0,336.3484213000047,,,,,,,,,,P2,2,2024-06-28_19h52.16.260,digit_span,2023.2.3,143.73288676384547,2024-06-28 19h52.34.479581 +0200,
2,0,2,0,2,0,2,0,4,0,4,0,337.44580470002256,,,19:58:12.915068,,,,,,,P2,2,2024-06-28_19h52.16.260,digit_span,2023.2.3,143.73288676384547,2024-06-28 19h52.34.479581 +0200,
2,0,2,0,2,0,2,0,,,,,,,,,"[7, 2, 9, 0, 5]",72905,space,2.270380000001751,None,19:58:15.292402,P2,2,2024-06-28_19h52.16.260,digit_span,2023.2.3,143.73288676384547,2024-06-28 19h52.34.479581 +0200,
2,0,2,0,3,0,3,0,0,0,0,0,341.81988680001814,,19:58:15.293389,,,,,,,,P2,2,2024-06-28_19h52.16.260,digit_span,2023.2.3,143.73288676384547,2024-06-28 19h52.34.479581 +0200,
2,0,2,0,3,0,3,0,1,0,1,0,342.92509319999954,,,,,,,,,,P2,2,2024-06-28_19h52.16.260,digit_span,2023.2.3,143.73288676384547,2024-06-28 19h52.34.479581 +0200,
2,0,2,0,3,0,3,0,2,0,2,0,344.02877849998185,,,,,,,,,,P2,2,2024-06-28_19h52.16.260,digit_span,2023.2.3,143.73288676384547,2024-06-28 19h52.34.479581 +0200,
2,0,2,0,3,0,3,0,3,0,3,0,345.12589870003285,,,,,,,,,,P2,2,2024-06-28_19h52.16.260,digit_span,2023.2.3,143.73288676384547,2024-06-28 19h52.34.479581 +0200,
2,0,2,0,3,0,3,0,4,0,4,0,346.2230126999784,,,19:58:21.693711,,,,,,,P2,2,2024-06-28_19h52.16.260,digit_span,2023.2.3,143.73288676384547,2024-06-28 19h52.34.479581 +0200,
2,0,2,0,3,0,3,0,,,,,,,,,"[6, 8, 1, 7, 3]",8756678,space,1.3857882999582216,None,19:58:23.186938,P2,2,2024-06-28_19h52.16.260,digit_span,2023.2.3,143.73288676384547,2024-06-28 19h52.34.479581 +0200,
2,0,2,0,4,0,4,0,0,0,0,0,349.716102699982,,19:58:23.186938,,,,,,,,P2,2,2024-06-28_19h52.16.260,digit_span,2023.2.3,143.73288676384547,2024-06-28 19h52.34.479581 +0200,
2,0,2,0,4,0,4,0,1,0,1,0,350.8199017000152,,,,,,,,,,P2,2,2024-06-28_19h52.16.260,digit_span,2023.2.3,143.73288676384547,2024-06-28 19h52.34.479581 +0200,
2,0,2,0,4,0,4,0,2,0,2,0,351.91761810000753,,,,,,,,,,P2,2,2024-06-28_19h52.16.260,digit_span,2023.2.3,143.73288676384547,2024-06-28 19h52.34.479581 +0200,
2,0,2,0,4,0,4,0,3,0,3,0,353.0209728999762,,,,,,,,,,P2,2,2024-06-28_19h52.16.260,digit_span,2023.2.3,143.73288676384547,2024-06-28 19h52.34.479581 +0200,
2,0,2,0,4,0,4,0,4,0,4,0,354.1187204000307,,,19:58:29.589511,,,,,,,P2,2,2024-06-28_19h52.16.260,digit_span,2023.2.3,143.73288676384547,2024-06-28 19h52.34.479581 +0200,
2,0,2,0,4,0,4,0,,,,,,,,,"[4, 1, 9, 2, 3]",412,space,2.5719391999882646,None,19:58:32.269846,P2,2,2024-06-28_19h52.16.260,digit_span,2023.2.3,143.73288676384547,2024-06-28 19h52.34.479581 +0200,
2,0,2,0,5,0,5,0,0,0,0,0,358.79894860001514,,19:58:32.269846,,,,,,,,P2,2,2024-06-28_19h52.16.260,digit_span,2023.2.3,143.73288676384547,2024-06-28 19h52.34.479581 +0200,
2,0,2,0,5,0,5,0,1,0,1,0,359.90357949997997,,,,,,,,,,P2,2,2024-06-28_19h52.16.260,digit_span,2023.2.3,143.73288676384547,2024-06-28 19h52.34.479581 +0200,
2,0,2,0,5,0,5,0,2,0,2,0,361.00067819998367,,,,,,,,,,P2,2,2024-06-28_19h52.16.260,digit_span,2023.2.3,143.73288676384547,2024-06-28 19h52.34.479581 +0200,
2,0,2,0,5,0,5,0,3,0,3,0,362.10485780000454,,,,,,,,,,P2,2,2024-06-28_19h52.16.260,digit_span,2023.2.3,143.73288676384547,2024-06-28 19h52.34.479581 +0200,
2,0,2,0,5,0,5,0,4,0,4,0,363.20202710002195,,,19:58:38.671270,,,,,,,P2,2,2024-06-28_19h52.16.260,digit_span,2023.2.3,143.73288676384547,2024-06-28 19h52.34.479581 +0200,
2,0,2,0,5,0,5,0,,,,,,,,,"[4, 2, 8, 3, 7]",87678 ,space,2.2784473999636248,None,19:58:41.061107,P2,2,2024-06-28_19h52.16.260,digit_span,2023.2.3,143.73288676384547,2024-06-28 19h52.34.479581 +0200,
2,0,2,0,6,0,6,0,0,0,0,0,367.59114660002524,,19:58:41.062113,,,,,,,,P2,2,2024-06-28_19h52.16.260,digit_span,2023.2.3,143.73288676384547,2024-06-28 19h52.34.479581 +0200,
2,0,2,0,6,0,6,0,1,0,1,0,368.69530570000643,,,,,,,,,,P2,2,2024-06-28_19h52.16.260,digit_span,2023.2.3,143.73288676384547,2024-06-28 19h52.34.479581 +0200,
2,0,2,0,6,0,6,0,2,0,2,0,369.7918983999989,,,,,,,,,,P2,2,2024-06-28_19h52.16.260,digit_span,2023.2.3,143.73288676384547,2024-06-28 19h52.34.479581 +0200,
2,0,2,0,6,0,6,0,3,0,3,0,370.8963387000258,,,,,,,,,,P2,2,2024-06-28_19h52.16.260,digit_span,2023.2.3,143.73288676384547,2024-06-28 19h52.34.479581 +0200,
2,0,2,0,6,0,6,0,4,0,4,0,371.9935750000295,,,19:58:47.462713,,,,,,,P2,2,2024-06-28_19h52.16.260,digit_span,2023.2.3,143.73288676384547,2024-06-28 19h52.34.479581 +0200,
2,0,2,0,6,0,6,0,,,,,,,,,"[8, 9, 4, 0, 3]",03,space,1.4360358999692835,None,19:58:49.006033,P2,2,2024-06-28_19h52.16.260,digit_span,2023.2.3,143.73288676384547,2024-06-28 19h52.34.479581 +0200,
2,0,2,0,7,0,7,0,0,0,0,0,375.5345186999766,,19:58:49.006033,,,,,,,,P2,2,2024-06-28_19h52.16.260,digit_span,2023.2.3,143.73288676384547,2024-06-28 19h52.34.479581 +0200,
2,0,2,0,7,0,7,0,1,0,1,0,376.638927699998,,,,,,,,,,P2,2,2024-06-28_19h52.16.260,digit_span,2023.2.3,143.73288676384547,2024-06-28 19h52.34.479581 +0200,
2,0,2,0,7,0,7,0,2,0,2,0,377.73626540001715,,,,,,,,,,P2,2,2024-06-28_19h52.16.260,digit_span,2023.2.3,143.73288676384547,2024-06-28 19h52.34.479581 +0200,
2,0,2,0,7,0,7,0,3,0,3,0,378.8401121000061,,,,,,,,,,P2,2,2024-06-28_19h52.16.260,digit_span,2023.2.3,143.73288676384547,2024-06-28 19h52.34.479581 +0200,
2,0,2,0,7,0,7,0,4,0,4,0,379.93790810002247,,,19:58:55.408036,,,,,,,P2,2,2024-06-28_19h52.16.260,digit_span,2023.2.3,143.73288676384547,2024-06-28 19h52.34.479581 +0200,
2,0,2,0,7,0,7,0,,,,,,,,,"[2, 5, 3, 1, 6]",25368 ,space,2.8960816000471823,None,19:58:58.415318,P2,2,2024-06-28_19h52.16.260,digit_span,2023.2.3,143.73288676384547,2024-06-28 19h52.34.479581 +0200,
2,0,2,0,8,0,8,0,0,0,0,0,384.94458670000313,,19:58:58.415318,,,,,,,,P2,2,2024-06-28_19h52.16.260,digit_span,2023.2.3,143.73288676384547,2024-06-28 19h52.34.479581 +0200,
2,0,2,0,8,0,8,0,1,0,1,0,386.0495303000207,,,,,,,,,,P2,2,2024-06-28_19h52.16.260,digit_span,2023.2.3,143.73288676384547,2024-06-28 19h52.34.479581 +0200,
2,0,2,0,8,0,8,0,2,0,2,0,387.14602109999396,,,,,,,,,,P2,2,2024-06-28_19h52.16.260,digit_span,2023.2.3,143.73288676384547,2024-06-28 19h52.34.479581 +0200,
2,0,2,0,8,0,8,0,3,0,3,0,388.2499633000116,,,,,,,,,,P2,2,2024-06-28_19h52.16.260,digit_span,2023.2.3,143.73288676384547,2024-06-28 19h52.34.479581 +0200,
2,0,2,0,8,0,8,0,4,0,4,0,389.34725589997834,,,19:59:04.817530,,,,,,,P2,2,2024-06-28_19h52.16.260,digit_span,2023.2.3,143.73288676384547,2024-06-28 19h52.34.479581 +0200,
2,0,2,0,8,0,8,0,,,,,,,,,"[7, 2, 8, 6, 4]",72864,space,2.016328199999407,None,19:59:06.943318,P2,2,2024-06-28_19h52.16.260,digit_span,2023.2.3,143.73288676384547,2024-06-28 19h52.34.479581 +0200,
2,0,2,0,9,0,9,0,0,0,0,0,393.4714605000336,,19:59:06.943318,,,,,,,,P2,2,2024-06-28_19h52.16.260,digit_span,2023.2.3,143.73288676384547,2024-06-28 19h52.34.479581 +0200,
2,0,2,0,9,0,9,0,1,0,1,0,394.5781027000048,,,,,,,,,,P2,2,2024-06-28_19h52.16.260,digit_span,2023.2.3,143.73288676384547,2024-06-28 19h52.34.479581 +0200,
2,0,2,0,9,0,9,0,2,0,2,0,395.6736108000041,,,,,,,,,,P2,2,2024-06-28_19h52.16.260,digit_span,2023.2.3,143.73288676384547,2024-06-28 19h52.34.479581 +0200,
2,0,2,0,9,0,9,0,3,0,3,0,396.778509100026,,,,,,,,,,P2,2,2024-06-28_19h52.16.260,digit_span,2023.2.3,143.73288676384547,2024-06-28 19h52.34.479581 +0200,
2,0,2,0,9,0,9,0,4,0,4,0,397.87488369998755,,,19:59:13.344344,,,,,,,P2,2,2024-06-28_19h52.16.260,digit_span,2023.2.3,143.73288676384547,2024-06-28 19h52.34.479581 +0200,
2,0,2,0,9,0,9,0,,,,,,,,,"[6, 1, 5, 3, 0]",61530,space,1.803868599992711,None,19:59:15.255427,P2,2,2024-06-28_19h52.16.260,digit_span,2023.2.3,143.73288676384547,2024-06-28 19h52.34.479581 +0200,
2,0,2,0,10,0,10,0,0,0,0,0,401.7857387000113,,19:59:15.255427,,,,,,,,P2,2,2024-06-28_19h52.16.260,digit_span,2023.2.3,143.73288676384547,2024-06-28 19h52.34.479581 +0200,
2,0,2,0,10,0,10,0,1,0,1,0,402.8886947000283,,,,,,,,,,P2,2,2024-06-28_19h52.16.260,digit_span,2023.2.3,143.73288676384547,2024-06-28 19h52.34.479581 +0200,
2,0,2,0,10,0,10,0,2,0,2,0,403.98536190000596,,,,,,,,,,P2,2,2024-06-28_19h52.16.260,digit_span,2023.2.3,143.73288676384547,2024-06-28 19h52.34.479581 +0200,
2,0,2,0,10,0,10,0,3,0,3,0,405.09121739998227,,,,,,,,,,P2,2,2024-06-28_19h52.16.260,digit_span,2023.2.3,143.73288676384547,2024-06-28 19h52.34.479581 +0200,
2,0,2,0,10,0,10,0,4,0,4,0,406.1863582999795,,,19:59:21.656915,,,,,,,P2,2,2024-06-28_19h52.16.260,digit_span,2023.2.3,143.73288676384547,2024-06-28 19h52.34.479581 +0200,
2,0,2,0,10,0,10,0,,,,,,,,,"[9, 8, 7, 3, 2]",23780,space,2.057845500006806,None,19:59:23.824870,P2,2,2024-06-28_19h52.16.260,digit_span,2023.2.3,143.73288676384547,2024-06-28 19h52.34.479581 +0200,
2,0,2,0,11,0,11,0,0,0,0,0,410.3535031999927,,19:59:23.824870,,,,,,,,P2,2,2024-06-28_19h52.16.260,digit_span,2023.2.3,143.73288676384547,2024-06-28 19h52.34.479581 +0200,
2,0,2,0,11,0,11,0,1,0,1,0,411.45866320002824,,,,,,,,,,P2,2,2024-06-28_19h52.16.260,digit_span,2023.2.3,143.73288676384547,2024-06-28 19h52.34.479581 +0200,
2,0,2,0,11,0,11,0,2,0,2,0,412.55529049999313,,,,,,,,,,P2,2,2024-06-28_19h52.16.260,digit_span,2023.2.3,143.73288676384547,2024-06-28 19h52.34.479581 +0200,
2,0,2,0,11,0,11,0,3,0,3,0,413.6590492000105,,,,,,,,,,P2,2,2024-06-28_19h52.16.260,digit_span,2023.2.3,143.73288676384547,2024-06-28 19h52.34.479581 +0200,
2,0,2,0,11,0,11,0,4,0,4,0,414.7565429999959,,,19:59:30.226291,,,,,,,P2,2,2024-06-28_19h52.16.260,digit_span,2023.2.3,143.73288676384547,2024-06-28 19h52.34.479581 +0200,
2,0,2,0,11,0,11,0,,,,,,,,,"[9, 6, 5, 0, 3]","96540
",space,3.7384486999944784,None,19:59:34.074017,P2,2,2024-06-28_19h52.16.260,digit_span,2023.2.3,143.73288676384547,2024-06-28 19h52.34.479581 +0200,
2,0,2,0,12,0,12,0,0,0,0,0,420.60357320000185,,19:59:34.074017,,,,,,,,P2,2,2024-06-28_19h52.16.260,digit_span,2023.2.3,143.73288676384547,2024-06-28 19h52.34.479581 +0200,
2,0,2,0,12,0,12,0,1,0,1,0,421.70707790000597,,,,,,,,,,P2,2,2024-06-28_19h52.16.260,digit_span,2023.2.3,143.73288676384547,2024-06-28 19h52.34.479581 +0200,
2,0,2,0,12,0,12,0,2,0,2,0,422.8055505999946,,,,,,,,,,P2,2,2024-06-28_19h52.16.260,digit_span,2023.2.3,143.73288676384547,2024-06-28 19h52.34.479581 +0200,
2,0,2,0,12,0,12,0,3,0,3,0,423.90846870001405,,,,,,,,,,P2,2,2024-06-28_19h52.16.260,digit_span,2023.2.3,143.73288676384547,2024-06-28 19h52.34.479581 +0200,
2,0,2,0,12,0,12,0,4,0,4,0,425.0084042000235,,,19:59:40.476267,,,,,,,P2,2,2024-06-28_19h52.16.260,digit_span,2023.2.3,143.73288676384547,2024-06-28 19h52.34.479581 +0200,
2,0,2,0,12,0,12,0,,,,,,,,,"[2, 1, 9, 3, 7]",09876543,space,1.8701614000019617,None,19:59:42.456447,P2,2,2024-06-28_19h52.16.260,digit_span,2023.2.3,143.73288676384547,2024-06-28 19h52.34.479581 +0200,
2,0,2,0,13,0,13,0,0,0,0,0,428.9854802999762,,19:59:42.456447,,,,,,,,P2,2,2024-06-28_19h52.16.260,digit_span,2023.2.3,143.73288676384547,2024-06-28 19h52.34.479581 +0200,
2,0,2,0,13,0,13,0,1,0,1,0,430.089311800024,,,,,,,,,,P2,2,2024-06-28_19h52.16.260,digit_span,2023.2.3,143.73288676384547,2024-06-28 19h52.34.479581 +0200,
2,0,2,0,13,0,13,0,2,0,2,0,431.18651279999176,,,,,,,,,,P2,2,2024-06-28_19h52.16.260,digit_span,2023.2.3,143.73288676384547,2024-06-28 19h52.34.479581 +0200,
2,0,2,0,13,0,13,0,3,0,3,0,432.2903967000311,,,,,,,,,,P2,2,2024-06-28_19h52.16.260,digit_span,2023.2.3,143.73288676384547,2024-06-28 19h52.34.479581 +0200,
2,0,2,0,13,0,13,0,4,0,4,0,433.38753389997873,,,19:59:48.858218,,,,,,,P2,2,2024-06-28_19h52.16.260,digit_span,2023.2.3,143.73288676384547,2024-06-28 19h52.34.479581 +0200,
2,0,2,0,13,0,13,0,,,,,,,,,"[8, 2, 9, 5, 3]",82530,space,7.842232500028331,None,19:59:56.810567,P2,2,2024-06-28_19h52.16.260,digit_span,2023.2.3,143.73288676384547,2024-06-28 19h52.34.479581 +0200,
2,0,2,0,14,0,14,0,0,0,0,0,443.33891450002557,,19:59:56.810567,,,,,,,,P2,2,2024-06-28_19h52.16.260,digit_span,2023.2.3,143.73288676384547,2024-06-28 19h52.34.479581 +0200,
2,0,2,0,14,0,14,0,1,0,1,0,444.44254989997717,,,,,,,,,,P2,2,2024-06-28_19h52.16.260,digit_span,2023.2.3,143.73288676384547,2024-06-28 19h52.34.479581 +0200,
2,0,2,0,14,0,14,0,2,0,2,0,445.5472853999818,,,,,,,,,,P2,2,2024-06-28_19h52.16.260,digit_span,2023.2.3,143.73288676384547,2024-06-28 19h52.34.479581 +0200,
2,0,2,0,14,0,14,0,3,0,3,0,446.64442790002795,,,,,,,,,,P2,2,2024-06-28_19h52.16.260,digit_span,2023.2.3,143.73288676384547,2024-06-28 19h52.34.479581 +0200,
2,0,2,0,14,0,14,0,4,0,4,0,447.74230819998775,,,20:00:03.211611,,,,,,,P2,2,2024-06-28_19h52.16.260,digit_span,2023.2.3,143.73288676384547,2024-06-28 19h52.34.479581 +0200,
2,0,2,0,14,0,14,0,,,,,,,,,"[5, 8, 7, 9, 3]",827930,space,4.241600099951029,None,20:00:07.560714,P2,2,2024-06-28_19h52.16.260,digit_span,2023.2.3,143.73288676384547,2024-06-28 19h52.34.479581 +0200,
2,0,2,0,,,,,,,,,,,,,,,,,,,P2,2,2024-06-28_19h52.16.260,digit_span,2023.2.3,143.73288676384547,2024-06-28 19h52.34.479581 +0200,
2,0,2,0,,,,,,,,,,,,,,,,,,,P2,2,2024-06-28_19h52.16.260,digit_span,2023.2.3,143.73288676384547,2024-06-28 19h52.34.479581 +0200,
