cond.thisRepN,cond.thisTrialN,cond.thisN,cond.thisIndex,trials.thisRepN,trials.thisTrialN,trials.thisN,trials.thisIndex,digit_rep.thisRepN,digit_rep.thisTrialN,digit_rep.thisN,digit_rep.thisIndex,thisRow.t,notes,sequence_started,sequence_ended,digit_sequence,result_box.text,confirm_input.keys,confirm_input.rt,confirm_input.duration,input_ended,participant,order,date,expName,psychopyVersion,frameRate,expStart,
0,0,0,0,0,0,0,0,0,0,0,0,3.9119886999833398,,20:02:44.504004,,,,,,,,p3,3,2024-06-28_20h02.33.631,digit_span,2023.2.3,142.5843993135822,2024-06-28 20h02.41.701633 +0200,
0,0,0,0,0,0,0,0,1,0,1,0,4.914540999976452,,,,,,,,,,p3,3,2024-06-28_20h02.33.631,digit_span,2023.2.3,142.5843993135822,2024-06-28 20h02.41.701633 +0200,
0,0,0,0,0,0,0,0,2,0,2,0,6.023638500017114,,,,,,,,,,p3,3,2024-06-28_20h02.33.631,digit_span,2023.2.3,142.5843993135822,2024-06-28 20h02.41.701633 +0200,
0,0,0,0,0,0,0,0,3,0,3,0,7.119153100007679,,,,,,,,,,p3,3,2024-06-28_20h02.33.631,digit_span,2023.2.3,142.5843993135822,2024-06-28 20h02.41.701633 +0200,
0,0,0,0,0,0,0,0,4,0,4,0,8.224443699989934,,,20:02:50.902330,,,,,,,p3,3,2024-06-28_20h02.33.631,digit_span,2023.2.3,142.5843993135822,2024-06-28 20h02.41.701633 +0200,
0,0,0,0,0,0,0,0,,,,,,,,,"[2, 4, 1, 7, 5]",2415,space,2.5575578000280075,None,20:02:53.570564,p3,3,2024-06-28_20h02.33.631,digit_span,2023.2.3,142.5843993135822,2024-06-28 20h02.41.701633 +0200,
0,0,0,0,1,0,1,0,0,0,0,0,12.876179900020361,,20:02:53.570564,,,,,,,,p3,3,2024-06-28_20h02.33.631,digit_span,2023.2.3,142.5843993135822,2024-06-28 20h02.41.701633 +0200,
0,0,0,0,1,0,1,0,1,0,1,0,13.97960309998598,,,,,,,,,,p3,3,2024-06-28_20h02.33.631,digit_span,2023.2.3,142.5843993135822,2024-06-28 20h02.41.701633 +0200,
0,0,0,0,1,0,1,0,2,0,2,0,15.083766800002195,,,,,,,,,,p3,3,2024-06-28_20h02.33.631,digit_span,2023.2.3,142.5843993135822,2024-06-28 20h02.41.701633 +0200,
0,0,0,0,1,0,1,0,3,0,3,0,16.180342699983157,,,,,,,,,,p3,3,2024-06-28_20h02.33.631,digit_span,2023.2.3,142.5843993135822,2024-06-28 20h02.41.701633 +0200,
0,0,0,0,1,0,1,0,4,0,4,0,17.29014479997568,,,20:02:59.971320,,,,,,,p3,3,2024-06-28_20h02.33.631,digit_span,2023.2.3,142.5843993135822,2024-06-28 20h02.41.701633 +0200,
0,0,0,0,1,0,1,0,,,,,,,,,"[4, 5, 7, 1, 8]",45718,space,2.238870000001043,None,20:03:02.319636,p3,3,2024-06-28_20h02.33.631,digit_span,2023.2.3,142.5843993135822,2024-06-28 20h02.41.701633 +0200,
0,0,0,0,2,0,2,0,0,0,0,0,21.632662700023502,,20:03:02.319636,,,,,,,,p3,3,2024-06-28_20h02.33.631,digit_span,2023.2.3,142.5843993135822,2024-06-28 20h02.41.701633 +0200,
0,0,0,0,2,0,2,0,1,0,1,0,22.728751300019212,,,,,,,,,,p3,3,2024-06-28_20h02.33.631,digit_span,2023.2.3,142.5843993135822,2024-06-28 20h02.41.701633 +0200,
0,0,0,0,2,0,2,0,2,0,2,0,23.826594699989073,,,,,,,,,,p3,3,2024-06-28_20h02.33.631,digit_span,2023.2.3,142.5843993135822,2024-06-28 20h02.41.701633 +0200,
0,0,0,0,2,0,2,0,3,0,3,0,24.935266599990427,,,,,,,,,,p3,3,2024-06-28_20h02.33.631,digit_span,2023.2.3,142.5843993135822,2024-06-28 20h02.41.701633 +0200,
0,0,0,0,2,0,2,0,4,0,4,0,26.03889279998839,,,20:03:08.721310,,,,,,,p3,3,2024-06-28_20h02.33.631,digit_span,2023.2.3,142.5843993135822,2024-06-28 20h02.41.701633 +0200,
0,0,0,0,2,0,2,0,,,,,,,,,"[6, 1, 8, 3, 0]",61830,space,2.04786689998582,None,20:03:10.874758,p3,3,2024-06-28_20h02.33.631,digit_span,2023.2.3,142.5843993135822,2024-06-28 20h02.41.701633 +0200,
0,0,0,0,3,0,3,0,0,0,0,0,30.18055699998513,,20:03:10.874758,,,,,,,,p3,3,2024-06-28_20h02.33.631,digit_span,2023.2.3,142.5843993135822,2024-06-28 20h02.41.701633 +0200,
0,0,0,0,3,0,3,0,1,0,1,0,31.28480879997369,,,,,,,,,,p3,3,2024-06-28_20h02.33.631,digit_span,2023.2.3,142.5843993135822,2024-06-28 20h02.41.701633 +0200,
0,0,0,0,3,0,3,0,2,0,2,0,32.38341950002359,,,,,,,,,,p3,3,2024-06-28_20h02.33.631,digit_span,2023.2.3,142.5843993135822,2024-06-28 20h02.41.701633 +0200,
0,0,0,0,3,0,3,0,3,0,3,0,33.486063299991656,,,,,,,,,,p3,3,2024-06-28_20h02.33.631,digit_span,2023.2.3,142.5843993135822,2024-06-28 20h02.41.701633 +0200,
0,0,0,0,3,0,3,0,4,0,4,0,34.58314070000779,,,20:03:17.277336,,,,,,,p3,3,2024-06-28_20h02.33.631,digit_span,2023.2.3,142.5843993135822,2024-06-28 20h02.41.701633 +0200,
0,0,0,0,3,0,3,0,,,,,,,,,"[4, 8, 5, 3, 7]",4857,space,1.6822386999847367,None,20:03:19.069885,p3,3,2024-06-28_20h02.33.631,digit_span,2023.2.3,142.5843993135822,2024-06-28 20h02.41.701633 +0200,
0,0,0,0,4,0,4,0,0,0,0,0,38.38257379998686,,20:03:19.069885,,,,,,,,p3,3,2024-06-28_20h02.33.631,digit_span,2023.2.3,142.5843993135822,2024-06-28 20h02.41.701633 +0200,
0,0,0,0,4,0,4,0,1,0,1,0,39.48133849998703,,,,,,,,,,p3,3,2024-06-28_20h02.33.631,digit_span,2023.2.3,142.5843993135822,2024-06-28 20h02.41.701633 +0200,
0,0,0,0,4,0,4,0,2,0,2,0,40.58340619999217,,,,,,,,,,p3,3,2024-06-28_20h02.33.631,digit_span,2023.2.3,142.5843993135822,2024-06-28 20h02.41.701633 +0200,
0,0,0,0,4,0,4,0,3,0,3,0,41.68130940000992,,,,,,,,,,p3,3,2024-06-28_20h02.33.631,digit_span,2023.2.3,142.5843993135822,2024-06-28 20h02.41.701633 +0200,
0,0,0,0,4,0,4,0,4,0,4,0,42.77863909996813,,,20:03:25.471086,,,,,,,p3,3,2024-06-28_20h02.33.631,digit_span,2023.2.3,142.5843993135822,2024-06-28 20h02.41.701633 +0200,
0,0,0,0,4,0,4,0,,,,,,,,,"[9, 3, 5, 0, 6]",9864,space,5.607594600005541,None,20:03:31.187242,p3,3,2024-06-28_20h02.33.631,digit_span,2023.2.3,142.5843993135822,2024-06-28 20h02.41.701633 +0200,
0,0,0,0,5,0,5,0,0,0,0,0,50.492579200014006,,20:03:31.187242,,,,,,,,p3,3,2024-06-28_20h02.33.631,digit_span,2023.2.3,142.5843993135822,2024-06-28 20h02.41.701633 +0200,
0,0,0,0,5,0,5,0,1,0,1,0,51.59727510000812,,,,,,,,,,p3,3,2024-06-28_20h02.33.631,digit_span,2023.2.3,142.5843993135822,2024-06-28 20h02.41.701633 +0200,
0,0,0,0,5,0,5,0,2,0,2,0,52.694077599968296,,,,,,,,,,p3,3,2024-06-28_20h02.33.631,digit_span,2023.2.3,142.5843993135822,2024-06-28 20h02.41.701633 +0200,
0,0,0,0,5,0,5,0,3,0,3,0,53.798134199983906,,,,,,,,,,p3,3,2024-06-28_20h02.33.631,digit_span,2023.2.3,142.5843993135822,2024-06-28 20h02.41.701633 +0200,
0,0,0,0,5,0,5,0,4,0,4,0,54.89447369996924,,,20:03:37.589006,,,,,,,p3,3,2024-06-28_20h02.33.631,digit_span,2023.2.3,142.5843993135822,2024-06-28 20h02.41.701633 +0200,
0,0,0,0,5,0,5,0,,,,,,,,,"[8, 4, 0, 3, 2]",8420,space,1.3505669999867678,None,20:03:39.047275,p3,3,2024-06-28_20h02.33.631,digit_span,2023.2.3,142.5843993135822,2024-06-28 20h02.41.701633 +0200,
0,0,0,0,6,0,6,0,0,0,0,0,58.353476500022225,,20:03:39.047275,,,,,,,,p3,3,2024-06-28_20h02.33.631,digit_span,2023.2.3,142.5843993135822,2024-06-28 20h02.41.701633 +0200,
0,0,0,0,6,0,6,0,1,0,1,0,59.457578199973796,,,,,,,,,,p3,3,2024-06-28_20h02.33.631,digit_span,2023.2.3,142.5843993135822,2024-06-28 20h02.41.701633 +0200,
0,0,0,0,6,0,6,0,2,0,2,0,60.55427020002389,,,,,,,,,,p3,3,2024-06-28_20h02.33.631,digit_span,2023.2.3,142.5843993135822,2024-06-28 20h02.41.701633 +0200,
0,0,0,0,6,0,6,0,3,0,3,0,61.65900739998324,,,,,,,,,,p3,3,2024-06-28_20h02.33.631,digit_span,2023.2.3,142.5843993135822,2024-06-28 20h02.41.701633 +0200,
0,0,0,0,6,0,6,0,4,0,4,0,62.75791039998876,,,20:03:45.449781,,,,,,,p3,3,2024-06-28_20h02.33.631,digit_span,2023.2.3,142.5843993135822,2024-06-28 20h02.41.701633 +0200,
0,0,0,0,6,0,6,0,,,,,,,,,"[2, 9, 1, 0, 4]",2980412,space,2.577111199963838,None,20:03:48.137998,p3,3,2024-06-28_20h02.33.631,digit_span,2023.2.3,142.5843993135822,2024-06-28 20h02.41.701633 +0200,
0,0,0,0,7,0,7,0,0,0,0,0,67.4435035000206,,20:03:48.137998,,,,,,,,p3,3,2024-06-28_20h02.33.631,digit_span,2023.2.3,142.5843993135822,2024-06-28 20h02.41.701633 +0200,
0,0,0,0,7,0,7,0,1,0,1,0,68.54736289998982,,,,,,,,,,p3,3,2024-06-28_20h02.33.631,digit_span,2023.2.3,142.5843993135822,2024-06-28 20h02.41.701633 +0200,
0,0,0,0,7,0,7,0,2,0,2,0,69.64476489997469,,,,,,,,,,p3,3,2024-06-28_20h02.33.631,digit_span,2023.2.3,142.5843993135822,2024-06-28 20h02.41.701633 +0200,
0,0,0,0,7,0,7,0,3,0,3,0,70.74888019997161,,,,,,,,,,p3,3,2024-06-28_20h02.33.631,digit_span,2023.2.3,142.5843993135822,2024-06-28 20h02.41.701633 +0200,
0,0,0,0,7,0,7,0,4,0,4,0,71.84590090002166,,,20:03:54.539213,,,,,,,p3,3,2024-06-28_20h02.33.631,digit_span,2023.2.3,142.5843993135822,2024-06-28 20h02.41.701633 +0200,
0,0,0,0,7,0,7,0,,,,,,,,,"[2, 5, 8, 6, 4]",25764,space,2.2166945000062697,None,20:03:56.866977,p3,3,2024-06-28_20h02.33.631,digit_span,2023.2.3,142.5843993135822,2024-06-28 20h02.41.701633 +0200,
0,0,0,0,8,0,8,0,0,0,0,0,76.17321490001632,,20:03:56.866977,,,,,,,,p3,3,2024-06-28_20h02.33.631,digit_span,2023.2.3,142.5843993135822,2024-06-28 20h02.41.701633 +0200,
0,0,0,0,8,0,8,0,1,0,1,0,77.27661790000275,,,,,,,,,,p3,3,2024-06-28_20h02.33.631,digit_span,2023.2.3,142.5843993135822,2024-06-28 20h02.41.701633 +0200,
0,0,0,0,8,0,8,0,2,0,2,0,78.37418739998247,,,,,,,,,,p3,3,2024-06-28_20h02.33.631,digit_span,2023.2.3,142.5843993135822,2024-06-28 20h02.41.701633 +0200,
0,0,0,0,8,0,8,0,3,0,3,0,79.477872700023,,,,,,,,,,p3,3,2024-06-28_20h02.33.631,digit_span,2023.2.3,142.5843993135822,2024-06-28 20h02.41.701633 +0200,
0,0,0,0,8,0,8,0,4,0,4,0,80.57551579998108,,,20:04:03.268377,,,,,,,p3,3,2024-06-28_20h02.33.631,digit_span,2023.2.3,142.5843993135822,2024-06-28 20h02.41.701633 +0200,
0,0,0,0,8,0,8,0,,,,,,,,,"[7, 1, 4, 6, 5]",7148 ,space,2.1034143999568187,None,20:04:05.484507,p3,3,2024-06-28_20h02.33.631,digit_span,2023.2.3,142.5843993135822,2024-06-28 20h02.41.701633 +0200,
0,0,0,0,9,0,9,0,0,0,0,0,84.7903519999818,,20:04:05.484507,,,,,,,,p3,3,2024-06-28_20h02.33.631,digit_span,2023.2.3,142.5843993135822,2024-06-28 20h02.41.701633 +0200,
0,0,0,0,9,0,9,0,1,0,1,0,85.89387530001113,,,,,,,,,,p3,3,2024-06-28_20h02.33.631,digit_span,2023.2.3,142.5843993135822,2024-06-28 20h02.41.701633 +0200,
0,0,0,0,9,0,9,0,2,0,2,0,86.99164640001254,,,,,,,,,,p3,3,2024-06-28_20h02.33.631,digit_span,2023.2.3,142.5843993135822,2024-06-28 20h02.41.701633 +0200,
0,0,0,0,9,0,9,0,3,0,3,0,88.09703279996756,,,,,,,,,,p3,3,2024-06-28_20h02.33.631,digit_span,2023.2.3,142.5843993135822,2024-06-28 20h02.41.701633 +0200,
0,0,0,0,9,0,9,0,4,0,4,0,89.19307769997977,,,20:04:11.885554,,,,,,,p3,3,2024-06-28_20h02.33.631,digit_span,2023.2.3,142.5843993135822,2024-06-28 20h02.41.701633 +0200,
0,0,0,0,9,0,9,0,,,,,,,,,"[1, 9, 3, 8, 5]",198315 ,space,2.569365600007586,None,20:04:14.566836,p3,3,2024-06-28_20h02.33.631,digit_span,2023.2.3,142.5843993135822,2024-06-28 20h02.41.701633 +0200,
0,0,0,0,10,0,10,0,0,0,0,0,93.87363579997327,,20:04:14.566836,,,,,,,,p3,3,2024-06-28_20h02.33.631,digit_span,2023.2.3,142.5843993135822,2024-06-28 20h02.41.701633 +0200,
0,0,0,0,10,0,10,0,1,0,1,0,94.97750049998285,,,,,,,,,,p3,3,2024-06-28_20h02.33.631,digit_span,2023.2.3,142.5843993135822,2024-06-28 20h02.41.701633 +0200,
0,0,0,0,10,0,10,0,2,0,2,0,96.07494159997441,,,,,,,,,,p3,3,2024-06-28_20h02.33.631,digit_span,2023.2.3,142.5843993135822,2024-06-28 20h02.41.701633 +0200,
0,0,0,0,10,0,10,0,3,0,3,0,97.17855120002059,,,,,,,,,,p3,3,2024-06-28_20h02.33.631,digit_span,2023.2.3,142.5843993135822,2024-06-28 20h02.41.701633 +0200,
0,0,0,0,10,0,10,0,4,0,4,0,98.27621069998713,,,20:04:20.969636,,,,,,,p3,3,2024-06-28_20h02.33.631,digit_span,2023.2.3,142.5843993135822,2024-06-28 20h02.41.701633 +0200,
0,0,0,0,10,0,10,0,,,,,,,,,"[1, 5, 0, 3, 6]",15306,space,2.6929783999803476,None,20:04:23.769575,p3,3,2024-06-28_20h02.33.631,digit_span,2023.2.3,142.5843993135822,2024-06-28 20h02.41.701633 +0200,
0,0,0,0,11,0,11,0,0,0,0,0,103.07451379997656,,20:04:23.769575,,,,,,,,p3,3,2024-06-28_20h02.33.631,digit_span,2023.2.3,142.5843993135822,2024-06-28 20h02.41.701633 +0200,
0,0,0,0,11,0,11,0,1,0,1,0,104.1787842999911,,,,,,,,,,p3,3,2024-06-28_20h02.33.631,digit_span,2023.2.3,142.5843993135822,2024-06-28 20h02.41.701633 +0200,
0,0,0,0,11,0,11,0,2,0,2,0,105.27614620001987,,,,,,,,,,p3,3,2024-06-28_20h02.33.631,digit_span,2023.2.3,142.5843993135822,2024-06-28 20h02.41.701633 +0200,
0,0,0,0,11,0,11,0,3,0,3,0,106.37961319996975,,,,,,,,,,p3,3,2024-06-28_20h02.33.631,digit_span,2023.2.3,142.5843993135822,2024-06-28 20h02.41.701633 +0200,
0,0,0,0,11,0,11,0,4,0,4,0,107.47950969997328,,,20:04:30.171020,,,,,,,p3,3,2024-06-28_20h02.33.631,digit_span,2023.2.3,142.5843993135822,2024-06-28 20h02.41.701633 +0200,
0,0,0,0,11,0,11,0,,,,,,,,,"[9, 4, 5, 8, 6]",25768,space,2.871166299970355,None,20:04:33.151042,p3,3,2024-06-28_20h02.33.631,digit_span,2023.2.3,142.5843993135822,2024-06-28 20h02.41.701633 +0200,
0,0,0,0,12,0,12,0,0,0,0,0,112.45601229998283,,20:04:33.151042,,,,,,,,p3,3,2024-06-28_20h02.33.631,digit_span,2023.2.3,142.5843993135822,2024-06-28 20h02.41.701633 +0200,
0,0,0,0,12,0,12,0,1,0,1,0,113.56046369997784,,,,,,,,,,p3,3,2024-06-28_20h02.33.631,digit_span,2023.2.3,142.5843993135822,2024-06-28 20h02.41.701633 +0200,
0,0,0,0,12,0,12,0,2,0,2,0,114.65763540001353,,,,,,,,,,p3,3,2024-06-28_20h02.33.631,digit_span,2023.2.3,142.5843993135822,2024-06-28 20h02.41.701633 +0200,
0,0,0,0,12,0,12,0,3,0,3,0,115.76268220000202,,,,,,,,,,p3,3,2024-06-28_20h02.33.631,digit_span,2023.2.3,142.5843993135822,2024-06-28 20h02.41.701633 +0200,
0,0,0,0,12,0,12,0,4,0,4,0,116.85936499998206,,,20:04:39.552762,,,,,,,p3,3,2024-06-28_20h02.33.631,digit_span,2023.2.3,142.5843993135822,2024-06-28 20h02.41.701633 +0200,
0,0,0,0,12,0,12,0,,,,,,,,,"[2, 0, 8, 9, 6]",20896,space,1.8977120000054128,None,20:04:41.560243,p3,3,2024-06-28_20h02.33.631,digit_span,2023.2.3,142.5843993135822,2024-06-28 20h02.41.701633 +0200,
0,0,0,0,13,0,13,0,0,0,0,0,120.86596740002278,,20:04:41.561239,,,,,,,,p3,3,2024-06-28_20h02.33.631,digit_span,2023.2.3,142.5843993135822,2024-06-28 20h02.41.701633 +0200,
0,0,0,0,13,0,13,0,1,0,1,0,121.96996050002053,,,,,,,,,,p3,3,2024-06-28_20h02.33.631,digit_span,2023.2.3,142.5843993135822,2024-06-28 20h02.41.701633 +0200,
0,0,0,0,13,0,13,0,2,0,2,0,123.06699279998429,,,,,,,,,,p3,3,2024-06-28_20h02.33.631,digit_span,2023.2.3,142.5843993135822,2024-06-28 20h02.41.701633 +0200,
0,0,0,0,13,0,13,0,3,0,3,0,124.17251730000135,,,,,,,,,,p3,3,2024-06-28_20h02.33.631,digit_span,2023.2.3,142.5843993135822,2024-06-28 20h02.41.701633 +0200,
0,0,0,0,13,0,13,0,4,0,4,0,125.26870359998429,,,20:04:47.961682,,,,,,,p3,3,2024-06-28_20h02.33.631,digit_span,2023.2.3,142.5843993135822,2024-06-28 20h02.41.701633 +0200,
0,0,0,0,13,0,13,0,,,,,,,,,"[4, 1, 6, 2, 9]",4162,space,2.9569518999778666,None,20:04:51.025437,p3,3,2024-06-28_20h02.33.631,digit_span,2023.2.3,142.5843993135822,2024-06-28 20h02.41.701633 +0200,
0,0,0,0,14,0,14,0,0,0,0,0,130.3317455999786,,20:04:51.025437,,,,,,,,p3,3,2024-06-28_20h02.33.631,digit_span,2023.2.3,142.5843993135822,2024-06-28 20h02.41.701633 +0200,
0,0,0,0,14,0,14,0,1,0,1,0,131.43518739996944,,,,,,,,,,p3,3,2024-06-28_20h02.33.631,digit_span,2023.2.3,142.5843993135822,2024-06-28 20h02.41.701633 +0200,
0,0,0,0,14,0,14,0,2,0,2,0,132.53173400001833,,,,,,,,,,p3,3,2024-06-28_20h02.33.631,digit_span,2023.2.3,142.5843993135822,2024-06-28 20h02.41.701633 +0200,
0,0,0,0,14,0,14,0,3,0,3,0,133.63643349998165,,,,,,,,,,p3,3,2024-06-28_20h02.33.631,digit_span,2023.2.3,142.5843993135822,2024-06-28 20h02.41.701633 +0200,
0,0,0,0,14,0,14,0,4,0,4,0,134.73369309998816,,,20:04:57.427169,,,,,,,p3,3,2024-06-28_20h02.33.631,digit_span,2023.2.3,142.5843993135822,2024-06-28 20h02.41.701633 +0200,
0,0,0,0,14,0,14,0,,,,,,,,,"[3, 5, 6, 2, 9]",35692,space,2.4230759000056423,None,20:04:59.955757,p3,3,2024-06-28_20h02.33.631,digit_span,2023.2.3,142.5843993135822,2024-06-28 20h02.41.701633 +0200,
0,0,0,0,,,,,,,,,,,,,,,,,,,p3,3,2024-06-28_20h02.33.631,digit_span,2023.2.3,142.5843993135822,2024-06-28 20h02.41.701633 +0200,
1,0,1,0,0,0,0,0,0,0,0,0,140.00432449998334,,20:05:00.693935,,,,,,,,p3,3,2024-06-28_20h02.33.631,digit_span,2023.2.3,142.5843993135822,2024-06-28 20h02.41.701633 +0200,
1,0,1,0,0,0,0,0,1,0,1,0,141.1013884000131,,,,,,,,,,p3,3,2024-06-28_20h02.33.631,digit_span,2023.2.3,142.5843993135822,2024-06-28 20h02.41.701633 +0200,
1,0,1,0,0,0,0,0,2,0,2,0,142.2053508000099,,,20:05:04.899339,,,,,,,p3,3,2024-06-28_20h02.33.631,digit_span,2023.2.3,142.5843993135822,2024-06-28 20h02.41.701633 +0200,
1,0,1,0,0,0,0,0,,,,,,,,,"[4, 2, 8]",4285,space,5.621821100008674,None,20:05:10.621445,p3,3,2024-06-28_20h02.33.631,digit_span,2023.2.3,142.5843993135822,2024-06-28 20h02.41.701633 +0200,
1,0,1,0,1,0,1,0,0,0,0,0,149.92790950002382,,20:05:10.621445,,,,,,,,p3,3,2024-06-28_20h02.33.631,digit_span,2023.2.3,142.5843993135822,2024-06-28 20h02.41.701633 +0200,
1,0,1,0,1,0,1,0,1,0,1,0,151.031749900023,,,,,,,,,,p3,3,2024-06-28_20h02.33.631,digit_span,2023.2.3,142.5843993135822,2024-06-28 20h02.41.701633 +0200,
1,0,1,0,1,0,1,0,2,0,2,0,152.12912270001834,,,20:05:14.822533,,,,,,,p3,3,2024-06-28_20h02.33.631,digit_span,2023.2.3,142.5843993135822,2024-06-28 20h02.41.701633 +0200,
1,0,1,0,1,0,1,0,,,,,,,,,"[7, 3, 2]",42583,space,5.654666199989151,None,20:05:20.586862,p3,3,2024-06-28_20h02.33.631,digit_span,2023.2.3,142.5843993135822,2024-06-28 20h02.41.701633 +0200,
1,0,1,0,2,0,2,0,0,0,0,0,159.89334050001344,,20:05:20.587869,,,,,,,,p3,3,2024-06-28_20h02.33.631,digit_span,2023.2.3,142.5843993135822,2024-06-28 20h02.41.701633 +0200,
1,0,1,0,2,0,2,0,1,0,1,0,160.99704940000083,,,,,,,,,,p3,3,2024-06-28_20h02.33.631,digit_span,2023.2.3,142.5843993135822,2024-06-28 20h02.41.701633 +0200,
1,0,1,0,2,0,2,0,2,0,2,0,162.10038459999487,,,20:05:24.787948,,,,,,,p3,3,2024-06-28_20h02.33.631,digit_span,2023.2.3,142.5843993135822,2024-06-28 20h02.41.701633 +0200,
1,0,1,0,2,0,2,0,,,,,,,,,"[4, 1, 6]",136 ,space,1.6379562000511214,None,20:05:26.537835,p3,3,2024-06-28_20h02.33.631,digit_span,2023.2.3,142.5843993135822,2024-06-28 20h02.41.701633 +0200,
1,0,1,0,3,0,3,0,0,0,0,0,165.8440606999793,,20:05:26.538832,,,,,,,,p3,3,2024-06-28_20h02.33.631,digit_span,2023.2.3,142.5843993135822,2024-06-28 20h02.41.701633 +0200,
1,0,1,0,3,0,3,0,1,0,1,0,166.9479607999674,,,,,,,,,,p3,3,2024-06-28_20h02.33.631,digit_span,2023.2.3,142.5843993135822,2024-06-28 20h02.41.701633 +0200,
1,0,1,0,3,0,3,0,2,0,2,0,168.04559669998707,,,20:05:30.739010,,,,,,,p3,3,2024-06-28_20h02.33.631,digit_span,2023.2.3,142.5843993135822,2024-06-28 20h02.41.701633 +0200,
1,0,1,0,3,0,3,0,,,,,,,,,"[6, 7, 9]",679,space,2.3157366999657825,None,20:05:33.162617,p3,3,2024-06-28_20h02.33.631,digit_span,2023.2.3,142.5843993135822,2024-06-28 20h02.41.701633 +0200,
1,0,1,0,4,0,4,0,0,0,0,0,172.46967299998505,,20:05:33.162617,,,,,,,,p3,3,2024-06-28_20h02.33.631,digit_span,2023.2.3,142.5843993135822,2024-06-28 20h02.41.701633 +0200,
1,0,1,0,4,0,4,0,1,0,1,0,173.5722997999983,,,,,,,,,,p3,3,2024-06-28_20h02.33.631,digit_span,2023.2.3,142.5843993135822,2024-06-28 20h02.41.701633 +0200,
1,0,1,0,4,0,4,0,2,0,2,0,174.67227119999006,,,20:05:37.363853,,,,,,,p3,3,2024-06-28_20h02.33.631,digit_span,2023.2.3,142.5843993135822,2024-06-28 20h02.41.701633 +0200,
1,0,1,0,4,0,4,0,,,,,,,,,"[2, 8, 0]",lkjihz,space,43.163035099976696,None,20:06:20.634267,p3,3,2024-06-28_20h02.33.631,digit_span,2023.2.3,142.5843993135822,2024-06-28 20h02.41.701633 +0200,
1,0,1,0,5,0,5,0,0,0,0,0,219.94053159997566,,20:06:20.634267,,,,,,,,p3,3,2024-06-28_20h02.33.631,digit_span,2023.2.3,142.5843993135822,2024-06-28 20h02.41.701633 +0200,
1,0,1,0,5,0,5,0,1,0,1,0,221.04437509999843,,,,,,,,,,p3,3,2024-06-28_20h02.33.631,digit_span,2023.2.3,142.5843993135822,2024-06-28 20h02.41.701633 +0200,
1,0,1,0,5,0,5,0,2,0,2,0,222.14220030000433,,,20:06:24.835118,,,,,,,p3,3,2024-06-28_20h02.33.631,digit_span,2023.2.3,142.5843993135822,2024-06-28 20h02.41.701633 +0200,
1,0,1,0,5,0,5,0,,,,,,,,,"[8, 1, 5]",815 ,space,1.9247903999639675,None,20:06:26.870885,p3,3,2024-06-28_20h02.33.631,digit_span,2023.2.3,142.5843993135822,2024-06-28 20h02.41.701633 +0200,
1,0,1,0,6,0,6,0,0,0,0,0,226.175713500008,,20:06:26.870885,,,,,,,,p3,3,2024-06-28_20h02.33.631,digit_span,2023.2.3,142.5843993135822,2024-06-28 20h02.41.701633 +0200,
1,0,1,0,6,0,6,0,1,0,1,0,227.28009860002203,,,,,,,,,,p3,3,2024-06-28_20h02.33.631,digit_span,2023.2.3,142.5843993135822,2024-06-28 20h02.41.701633 +0200,
1,0,1,0,6,0,6,0,2,0,2,0,228.37753330002306,,,20:06:31.070845,,,,,,,p3,3,2024-06-28_20h02.33.631,digit_span,2023.2.3,142.5843993135822,2024-06-28 20h02.41.701633 +0200,
1,0,1,0,6,0,6,0,,,,,,,,,"[9, 1, 0]",910,space,2.424059099983424,None,20:06:33.606591,p3,3,2024-06-28_20h02.33.631,digit_span,2023.2.3,142.5843993135822,2024-06-28 20h02.41.701633 +0200,
1,0,1,0,7,0,7,0,0,0,0,0,232.91236379998736,,20:06:33.606591,,,,,,,,p3,3,2024-06-28_20h02.33.631,digit_span,2023.2.3,142.5843993135822,2024-06-28 20h02.41.701633 +0200,
1,0,1,0,7,0,7,0,1,0,1,0,234.01593330001924,,,,,,,,,,p3,3,2024-06-28_20h02.33.631,digit_span,2023.2.3,142.5843993135822,2024-06-28 20h02.41.701633 +0200,
1,0,1,0,7,0,7,0,2,0,2,0,235.11457370000426,,,20:06:37.806285,,,,,,,p3,3,2024-06-28_20h02.33.631,digit_span,2023.2.3,142.5843993135822,2024-06-28 20h02.41.701633 +0200,
1,0,1,0,7,0,7,0,,,,,,,,,"[1, 3, 4]",3254,space,2.9749147999682464,None,20:06:40.890350,p3,3,2024-06-28_20h02.33.631,digit_span,2023.2.3,142.5843993135822,2024-06-28 20h02.41.701633 +0200,
1,0,1,0,8,0,8,0,0,0,0,0,240.1965381000191,,20:06:40.891353,,,,,,,,p3,3,2024-06-28_20h02.33.631,digit_span,2023.2.3,142.5843993135822,2024-06-28 20h02.41.701633 +0200,
1,0,1,0,8,0,8,0,1,0,1,0,241.30058009998174,,,,,,,,,,p3,3,2024-06-28_20h02.33.631,digit_span,2023.2.3,142.5843993135822,2024-06-28 20h02.41.701633 +0200,
1,0,1,0,8,0,8,0,2,0,2,0,242.39776319998782,,,20:06:45.090961,,,,,,,p3,3,2024-06-28_20h02.33.631,digit_span,2023.2.3,142.5843993135822,2024-06-28 20h02.41.701633 +0200,
1,0,1,0,8,0,8,0,,,,,,,,,"[9, 8, 5]",89789,space,11.312633600027766,None,20:06:56.514402,p3,3,2024-06-28_20h02.33.631,digit_span,2023.2.3,142.5843993135822,2024-06-28 20h02.41.701633 +0200,
1,0,1,0,9,0,9,0,0,0,0,0,255.82232219999423,,20:06:56.515400,,,,,,,,p3,3,2024-06-28_20h02.33.631,digit_span,2023.2.3,142.5843993135822,2024-06-28 20h02.41.701633 +0200,
1,0,1,0,9,0,9,0,1,0,1,0,256.92522360000294,,,,,,,,,,p3,3,2024-06-28_20h02.33.631,digit_span,2023.2.3,142.5843993135822,2024-06-28 20h02.41.701633 +0200,
1,0,1,0,9,0,9,0,2,0,2,0,258.02231420000317,,,20:07:00.715316,,,,,,,p3,3,2024-06-28_20h02.33.631,digit_span,2023.2.3,142.5843993135822,2024-06-28 20h02.41.701633 +0200,
1,0,1,0,9,0,9,0,,,,,,,,,"[3, 9, 2]",,space,-1.1370002999901772,0.17999520001467317,20:07:00.822249,p3,3,2024-06-28_20h02.33.631,digit_span,2023.2.3,142.5843993135822,2024-06-28 20h02.41.701633 +0200,
1,0,1,0,10,0,10,0,0,0,0,0,260.1265444000019,,20:07:00.823246,,,,,,,,p3,3,2024-06-28_20h02.33.631,digit_span,2023.2.3,142.5843993135822,2024-06-28 20h02.41.701633 +0200,
1,0,1,0,10,0,10,0,1,0,1,0,261.2306500999839,,,,,,,,,,p3,3,2024-06-28_20h02.33.631,digit_span,2023.2.3,142.5843993135822,2024-06-28 20h02.41.701633 +0200,
1,0,1,0,10,0,10,0,2,0,2,0,262.33481839997694,,,20:07:05.028403,,,,,,,p3,3,2024-06-28_20h02.33.631,digit_span,2023.2.3,142.5843993135822,2024-06-28 20h02.41.701633 +0200,
1,0,1,0,10,0,10,0,,,,,,,,,"[2, 5, 9]",,space,-0.12775519996648654,None,20:07:05.129271,p3,3,2024-06-28_20h02.33.631,digit_span,2023.2.3,142.5843993135822,2024-06-28 20h02.41.701633 +0200,
1,0,1,0,11,0,11,0,0,0,0,0,264.43284309998853,,20:07:05.129271,,,,,,,,p3,3,2024-06-28_20h02.33.631,digit_span,2023.2.3,142.5843993135822,2024-06-28 20h02.41.701633 +0200,
1,0,1,0,11,0,11,0,1,0,1,0,265.5365000999882,,,,,,,,,,p3,3,2024-06-28_20h02.33.631,digit_span,2023.2.3,142.5843993135822,2024-06-28 20h02.41.701633 +0200,
1,0,1,0,11,0,11,0,2,0,2,0,266.64020909997635,,,20:07:09.333151,,,,,,,p3,3,2024-06-28_20h02.33.631,digit_span,2023.2.3,142.5843993135822,2024-06-28 20h02.41.701633 +0200,
1,0,1,0,11,0,11,0,,,,,,,,,"[6, 4, 9]",925353,space,4.231228800024837,None,20:07:13.668163,p3,3,2024-06-28_20h02.33.631,digit_span,2023.2.3,142.5843993135822,2024-06-28 20h02.41.701633 +0200,
1,0,1,0,12,0,12,0,0,0,0,0,272.9733187999809,,20:07:13.668163,,,,,,,,p3,3,2024-06-28_20h02.33.631,digit_span,2023.2.3,142.5843993135822,2024-06-28 20h02.41.701633 +0200,
1,0,1,0,12,0,12,0,1,0,1,0,274.0775594000006,,,,,,,,,,p3,3,2024-06-28_20h02.33.631,digit_span,2023.2.3,142.5843993135822,2024-06-28 20h02.41.701633 +0200,
1,0,1,0,12,0,12,0,2,0,2,0,275.17484819999663,,,20:07:17.867952,,,,,,,p3,3,2024-06-28_20h02.33.631,digit_span,2023.2.3,142.5843993135822,2024-06-28 20h02.41.701633 +0200,
1,0,1,0,12,0,12,0,,,,,,,,,"[0, 7, 2]",9723,space,3.9956199000007473,None,20:07:21.972703,p3,3,2024-06-28_20h02.33.631,digit_span,2023.2.3,142.5843993135822,2024-06-28 20h02.41.701633 +0200,
1,0,1,0,13,0,13,0,0,0,0,0,281.27857149997726,,20:07:21.972703,,,,,,,,p3,3,2024-06-28_20h02.33.631,digit_span,2023.2.3,142.5843993135822,2024-06-28 20h02.41.701633 +0200,
1,0,1,0,13,0,13,0,1,0,1,0,282.38450059999013,,,,,,,,,,p3,3,2024-06-28_20h02.33.631,digit_span,2023.2.3,142.5843993135822,2024-06-28 20h02.41.701633 +0200,
1,0,1,0,13,0,13,0,2,0,2,0,283.4813680999796,,,20:07:26.173603,,,,,,,p3,3,2024-06-28_20h02.33.631,digit_span,2023.2.3,142.5843993135822,2024-06-28 20h02.41.701633 +0200,
1,0,1,0,13,0,13,0,,,,,,,,,"[2, 0, 6]",3206 ,space,4.028791899967473,None,20:07:30.312837,p3,3,2024-06-28_20h02.33.631,digit_span,2023.2.3,142.5843993135822,2024-06-28 20h02.41.701633 +0200,
1,0,1,0,14,0,14,0,0,0,0,0,289.6189832999953,,20:07:30.312837,,,,,,,,p3,3,2024-06-28_20h02.33.631,digit_span,2023.2.3,142.5843993135822,2024-06-28 20h02.41.701633 +0200,
1,0,1,0,14,0,14,0,1,0,1,0,290.7257432999904,,,,,,,,,,p3,3,2024-06-28_20h02.33.631,digit_span,2023.2.3,142.5843993135822,2024-06-28 20h02.41.701633 +0200,
1,0,1,0,14,0,14,0,2,0,2,0,291.8221190000186,,,20:07:34.514025,,,,,,,p3,3,2024-06-28_20h02.33.631,digit_span,2023.2.3,142.5843993135822,2024-06-28 20h02.41.701633 +0200,
1,0,1,0,14,0,14,0,,,,,,,,,"[8, 3, 6]",3286 ,space,4.853674599959049,None,20:07:39.479027,p3,3,2024-06-28_20h02.33.631,digit_span,2023.2.3,142.5843993135822,2024-06-28 20h02.41.701633 +0200,
1,0,1,0,,,,,,,,,,,,,,,,,,,p3,3,2024-06-28_20h02.33.631,digit_span,2023.2.3,142.5843993135822,2024-06-28 20h02.41.701633 +0200,
2,0,2,0,0,0,0,0,0,0,0,0,299.9030738999718,,20:07:40.599121,,,,,,,,p3,3,2024-06-28_20h02.33.631,digit_span,2023.2.3,142.5843993135822,2024-06-28 20h02.41.701633 +0200,
2,0,2,0,0,0,0,0,1,0,1,0,301.00819289998617,,,,,,,,,,p3,3,2024-06-28_20h02.33.631,digit_span,2023.2.3,142.5843993135822,2024-06-28 20h02.41.701633 +0200,
2,0,2,0,0,0,0,0,2,0,2,0,302.11140300001716,,,,,,,,,,p3,3,2024-06-28_20h02.33.631,digit_span,2023.2.3,142.5843993135822,2024-06-28 20h02.41.701633 +0200,
2,0,2,0,0,0,0,0,3,0,3,0,303.20959639997454,,,,,,,,,,p3,3,2024-06-28_20h02.33.631,digit_span,2023.2.3,142.5843993135822,2024-06-28 20h02.41.701633 +0200,
2,0,2,0,0,0,0,0,4,0,4,0,304.3061333000078,,,,,,,,,,p3,3,2024-06-28_20h02.33.631,digit_span,2023.2.3,142.5843993135822,2024-06-28 20h02.41.701633 +0200,
2,0,2,0,0,0,0,0,5,0,5,0,305.41030519997,,,,,,,,,,p3,3,2024-06-28_20h02.33.631,digit_span,2023.2.3,142.5843993135822,2024-06-28 20h02.41.701633 +0200,
2,0,2,0,0,0,0,0,6,0,6,0,306.50728269998217,,,,,,,,,,p3,3,2024-06-28_20h02.33.631,digit_span,2023.2.3,142.5843993135822,2024-06-28 20h02.41.701633 +0200,
2,0,2,0,0,0,0,0,7,0,7,0,307.6046230000211,,,20:07:50.297798,,,,,,,p3,3,2024-06-28_20h02.33.631,digit_span,2023.2.3,142.5843993135822,2024-06-28 20h02.41.701633 +0200,
2,0,2,0,0,0,0,0,,,,,,,,,"[6, 0, 2, 8, 5, 9, 3, 1]",259831,space,2.9318980000098236,None,20:07:53.339699,p3,3,2024-06-28_20h02.33.631,digit_span,2023.2.3,142.5843993135822,2024-06-28 20h02.41.701633 +0200,
2,0,2,0,1,0,1,0,0,0,0,0,312.64708680001786,,20:07:53.339699,,,,,,,,p3,3,2024-06-28_20h02.33.631,digit_span,2023.2.3,142.5843993135822,2024-06-28 20h02.41.701633 +0200,
2,0,2,0,1,0,1,0,1,0,1,0,313.7502015000209,,,,,,,,,,p3,3,2024-06-28_20h02.33.631,digit_span,2023.2.3,142.5843993135822,2024-06-28 20h02.41.701633 +0200,
2,0,2,0,1,0,1,0,2,0,2,0,314.8470207999926,,,,,,,,,,p3,3,2024-06-28_20h02.33.631,digit_span,2023.2.3,142.5843993135822,2024-06-28 20h02.41.701633 +0200,
2,0,2,0,1,0,1,0,3,0,3,0,315.9514872999862,,,,,,,,,,p3,3,2024-06-28_20h02.33.631,digit_span,2023.2.3,142.5843993135822,2024-06-28 20h02.41.701633 +0200,
2,0,2,0,1,0,1,0,4,0,4,0,317.0486972000217,,,,,,,,,,p3,3,2024-06-28_20h02.33.631,digit_span,2023.2.3,142.5843993135822,2024-06-28 20h02.41.701633 +0200,
2,0,2,0,1,0,1,0,5,0,5,0,318.1529328000033,,,,,,,,,,p3,3,2024-06-28_20h02.33.631,digit_span,2023.2.3,142.5843993135822,2024-06-28 20h02.41.701633 +0200,
2,0,2,0,1,0,1,0,6,0,6,0,319.250232899969,,,,,,,,,,p3,3,2024-06-28_20h02.33.631,digit_span,2023.2.3,142.5843993135822,2024-06-28 20h02.41.701633 +0200,
2,0,2,0,1,0,1,0,7,0,7,0,320.34739790001186,,,20:08:03.040970,,,,,,,p3,3,2024-06-28_20h02.33.631,digit_span,2023.2.3,142.5843993135822,2024-06-28 20h02.41.701633 +0200,
2,0,2,0,1,0,1,0,,,,,,,,,"[3, 0, 8, 9, 7, 6, 1, 5]",3315,space,1.7065176999894902,None,20:08:04.853499,p3,3,2024-06-28_20h02.33.631,digit_span,2023.2.3,142.5843993135822,2024-06-28 20h02.41.701633 +0200,
2,0,2,0,2,0,2,0,0,0,0,0,324.1595186999766,,20:08:04.853499,,,,,,,,p3,3,2024-06-28_20h02.33.631,digit_span,2023.2.3,142.5843993135822,2024-06-28 20h02.41.701633 +0200,
2,0,2,0,2,0,2,0,1,0,1,0,325.2644387999899,,,,,,,,,,p3,3,2024-06-28_20h02.33.631,digit_span,2023.2.3,142.5843993135822,2024-06-28 20h02.41.701633 +0200,
2,0,2,0,2,0,2,0,2,0,2,0,326.3605643999763,,,,,,,,,,p3,3,2024-06-28_20h02.33.631,digit_span,2023.2.3,142.5843993135822,2024-06-28 20h02.41.701633 +0200,
2,0,2,0,2,0,2,0,3,0,3,0,327.4651123000076,,,,,,,,,,p3,3,2024-06-28_20h02.33.631,digit_span,2023.2.3,142.5843993135822,2024-06-28 20h02.41.701633 +0200,
2,0,2,0,2,0,2,0,4,0,4,0,328.56231509998906,,,,,,,,,,p3,3,2024-06-28_20h02.33.631,digit_span,2023.2.3,142.5843993135822,2024-06-28 20h02.41.701633 +0200,
2,0,2,0,2,0,2,0,5,0,5,0,329.6663435000228,,,,,,,,,,p3,3,2024-06-28_20h02.33.631,digit_span,2023.2.3,142.5843993135822,2024-06-28 20h02.41.701633 +0200,
2,0,2,0,2,0,2,0,6,0,6,0,330.76344479998806,,,,,,,,,,p3,3,2024-06-28_20h02.33.631,digit_span,2023.2.3,142.5843993135822,2024-06-28 20h02.41.701633 +0200,
2,0,2,0,2,0,2,0,7,0,7,0,331.867133199994,,,20:08:14.554424,,,,,,,p3,3,2024-06-28_20h02.33.631,digit_span,2023.2.3,142.5843993135822,2024-06-28 20h02.41.701633 +0200,
2,0,2,0,2,0,2,0,,,,,,,,,"[7, 9, 4, 8, 2, 3, 5, 0]",23590 ,space,2.035349700017832,None,20:08:16.700410,p3,3,2024-06-28_20h02.33.631,digit_span,2023.2.3,142.5843993135822,2024-06-28 20h02.41.701633 +0200,
2,0,2,0,3,0,3,0,0,0,0,0,336.00650449999375,,20:08:16.700410,,,,,,,,p3,3,2024-06-28_20h02.33.631,digit_span,2023.2.3,142.5843993135822,2024-06-28 20h02.41.701633 +0200,
2,0,2,0,3,0,3,0,1,0,1,0,337.11071659997106,,,,,,,,,,p3,3,2024-06-28_20h02.33.631,digit_span,2023.2.3,142.5843993135822,2024-06-28 20h02.41.701633 +0200,
2,0,2,0,3,0,3,0,2,0,2,0,338.2080408000038,,,,,,,,,,p3,3,2024-06-28_20h02.33.631,digit_span,2023.2.3,142.5843993135822,2024-06-28 20h02.41.701633 +0200,
2,0,2,0,3,0,3,0,3,0,3,0,339.3121344000101,,,,,,,,,,p3,3,2024-06-28_20h02.33.631,digit_span,2023.2.3,142.5843993135822,2024-06-28 20h02.41.701633 +0200,
2,0,2,0,3,0,3,0,4,0,4,0,340.4091675999807,,,,,,,,,,p3,3,2024-06-28_20h02.33.631,digit_span,2023.2.3,142.5843993135822,2024-06-28 20h02.41.701633 +0200,
2,0,2,0,3,0,3,0,5,0,5,0,341.5128913000226,,,,,,,,,,p3,3,2024-06-28_20h02.33.631,digit_span,2023.2.3,142.5843993135822,2024-06-28 20h02.41.701633 +0200,
2,0,2,0,3,0,3,0,6,0,6,0,342.6100831999793,,,,,,,,,,p3,3,2024-06-28_20h02.33.631,digit_span,2023.2.3,142.5843993135822,2024-06-28 20h02.41.701633 +0200,
2,0,2,0,3,0,3,0,7,0,7,0,343.70955470000627,,,20:08:26.400867,,,,,,,p3,3,2024-06-28_20h02.33.631,digit_span,2023.2.3,142.5843993135822,2024-06-28 20h02.41.701633 +0200,
2,0,2,0,3,0,3,0,,,,,,,,,"[5, 7, 4, 2, 1, 3, 8, 6]",,space,-7.85083869996015,0.1659724999917671,20:08:26.507893,p3,3,2024-06-28_20h02.33.631,digit_span,2023.2.3,142.5843993135822,2024-06-28 20h02.41.701633 +0200,
2,0,2,0,4,0,4,0,0,0,0,0,345.8119046000065,,20:08:26.507893,,,,,,,,p3,3,2024-06-28_20h02.33.631,digit_span,2023.2.3,142.5843993135822,2024-06-28 20h02.41.701633 +0200,
2,0,2,0,4,0,4,0,1,0,1,0,346.9160562999896,,,,,,,,,,p3,3,2024-06-28_20h02.33.631,digit_span,2023.2.3,142.5843993135822,2024-06-28 20h02.41.701633 +0200,
2,0,2,0,4,0,4,0,2,0,2,0,348.0202714999905,,,,,,,,,,p3,3,2024-06-28_20h02.33.631,digit_span,2023.2.3,142.5843993135822,2024-06-28 20h02.41.701633 +0200,
2,0,2,0,4,0,4,0,3,0,3,0,349.1172780999914,,,,,,,,,,p3,3,2024-06-28_20h02.33.631,digit_span,2023.2.3,142.5843993135822,2024-06-28 20h02.41.701633 +0200,
2,0,2,0,4,0,4,0,4,0,4,0,350.2214043000131,,,,,,,,,,p3,3,2024-06-28_20h02.33.631,digit_span,2023.2.3,142.5843993135822,2024-06-28 20h02.41.701633 +0200,
2,0,2,0,4,0,4,0,5,0,5,0,351.31955590000143,,,,,,,,,,p3,3,2024-06-28_20h02.33.631,digit_span,2023.2.3,142.5843993135822,2024-06-28 20h02.41.701633 +0200,
2,0,2,0,4,0,4,0,6,0,6,0,352.41576609999174,,,,,,,,,,p3,3,2024-06-28_20h02.33.631,digit_span,2023.2.3,142.5843993135822,2024-06-28 20h02.41.701633 +0200,
2,0,2,0,4,0,4,0,7,0,7,0,353.5200370000093,,,20:08:36.213686,,,,,,,p3,3,2024-06-28_20h02.33.631,digit_span,2023.2.3,142.5843993135822,2024-06-28 20h02.41.701633 +0200,
2,0,2,0,4,0,4,0,,,,,,,,,"[7, 4, 0, 9, 1, 6, 2, 3]",,space,-6.018119700020179,0.12366189999738708,20:08:36.314603,p3,3,2024-06-28_20h02.33.631,digit_span,2023.2.3,142.5843993135822,2024-06-28 20h02.41.701633 +0200,
2,0,2,0,5,0,5,0,0,0,0,0,355.61732969997684,,20:08:36.314603,,,,,,,,p3,3,2024-06-28_20h02.33.631,digit_span,2023.2.3,142.5843993135822,2024-06-28 20h02.41.701633 +0200,
2,0,2,0,5,0,5,0,1,0,1,0,356.72131459997036,,,,,,,,,,p3,3,2024-06-28_20h02.33.631,digit_span,2023.2.3,142.5843993135822,2024-06-28 20h02.41.701633 +0200,
2,0,2,0,5,0,5,0,2,0,2,0,357.825419700006,,,,,,,,,,p3,3,2024-06-28_20h02.33.631,digit_span,2023.2.3,142.5843993135822,2024-06-28 20h02.41.701633 +0200,
2,0,2,0,5,0,5,0,3,0,3,0,358.92260140000144,,,,,,,,,,p3,3,2024-06-28_20h02.33.631,digit_span,2023.2.3,142.5843993135822,2024-06-28 20h02.41.701633 +0200,
2,0,2,0,5,0,5,0,4,0,4,0,360.02664039999945,,,,,,,,,,p3,3,2024-06-28_20h02.33.631,digit_span,2023.2.3,142.5843993135822,2024-06-28 20h02.41.701633 +0200,
2,0,2,0,5,0,5,0,5,0,5,0,361.12576359999366,,,,,,,,,,p3,3,2024-06-28_20h02.33.631,digit_span,2023.2.3,142.5843993135822,2024-06-28 20h02.41.701633 +0200,
2,0,2,0,5,0,5,0,6,0,6,0,362.2283567999839,,,,,,,,,,p3,3,2024-06-28_20h02.33.631,digit_span,2023.2.3,142.5843993135822,2024-06-28 20h02.41.701633 +0200,
2,0,2,0,5,0,5,0,7,0,7,0,363.3250344999833,,,20:08:46.018671,,,,,,,p3,3,2024-06-28_20h02.33.631,digit_span,2023.2.3,142.5843993135822,2024-06-28 20h02.41.701633 +0200,
2,0,2,0,5,0,5,0,,,,,,,,,"[5, 0, 6, 2, 1, 7, 9, 3]",23476567 ,space,2.1313247000216506,None,20:08:48.255659,p3,3,2024-06-28_20h02.33.631,digit_span,2023.2.3,142.5843993135822,2024-06-28 20h02.41.701633 +0200,
2,0,2,0,6,0,6,0,0,0,0,0,367.56514329998754,,20:08:48.255659,,,,,,,,p3,3,2024-06-28_20h02.33.631,digit_span,2023.2.3,142.5843993135822,2024-06-28 20h02.41.701633 +0200,
2,0,2,0,6,0,6,0,1,0,1,0,368.66498910001246,,,,,,,,,,p3,3,2024-06-28_20h02.33.631,digit_span,2023.2.3,142.5843993135822,2024-06-28 20h02.41.701633 +0200,
2,0,2,0,6,0,6,0,2,0,2,0,369.7624778000172,,,,,,,,,,p3,3,2024-06-28_20h02.33.631,digit_span,2023.2.3,142.5843993135822,2024-06-28 20h02.41.701633 +0200,
2,0,2,0,6,0,6,0,3,0,3,0,370.86695060000056,,,,,,,,,,p3,3,2024-06-28_20h02.33.631,digit_span,2023.2.3,142.5843993135822,2024-06-28 20h02.41.701633 +0200,
2,0,2,0,6,0,6,0,4,0,4,0,371.96407990000444,,,,,,,,,,p3,3,2024-06-28_20h02.33.631,digit_span,2023.2.3,142.5843993135822,2024-06-28 20h02.41.701633 +0200,
2,0,2,0,6,0,6,0,5,0,5,0,373.0743623999879,,,,,,,,,,p3,3,2024-06-28_20h02.33.631,digit_span,2023.2.3,142.5843993135822,2024-06-28 20h02.41.701633 +0200,
2,0,2,0,6,0,6,0,6,0,6,0,374.1656092000194,,,,,,,,,,p3,3,2024-06-28_20h02.33.631,digit_span,2023.2.3,142.5843993135822,2024-06-28 20h02.41.701633 +0200,
2,0,2,0,6,0,6,0,7,0,7,0,375.26273879996734,,,20:08:57.956434,,,,,,,p3,3,2024-06-28_20h02.33.631,digit_span,2023.2.3,142.5843993135822,2024-06-28 20h02.41.701633 +0200,
2,0,2,0,6,0,6,0,,,,,,,,,"[1, 7, 9, 5, 6, 0, 4, 2]",25463,space,3.2466962999897078,None,20:09:01.311175,p3,3,2024-06-28_20h02.33.631,digit_span,2023.2.3,142.5843993135822,2024-06-28 20h02.41.701633 +0200,
2,0,2,0,7,0,7,0,0,0,0,0,380.6201902999892,,20:09:01.311175,,,,,,,,p3,3,2024-06-28_20h02.33.631,digit_span,2023.2.3,142.5843993135822,2024-06-28 20h02.41.701633 +0200,
2,0,2,0,7,0,7,0,1,0,1,0,381.72041629999876,,,,,,,,,,p3,3,2024-06-28_20h02.33.631,digit_span,2023.2.3,142.5843993135822,2024-06-28 20h02.41.701633 +0200,
2,0,2,0,7,0,7,0,2,0,2,0,382.82460439996794,,,,,,,,,,p3,3,2024-06-28_20h02.33.631,digit_span,2023.2.3,142.5843993135822,2024-06-28 20h02.41.701633 +0200,
2,0,2,0,7,0,7,0,3,0,3,0,383.922214500024,,,,,,,,,,p3,3,2024-06-28_20h02.33.631,digit_span,2023.2.3,142.5843993135822,2024-06-28 20h02.41.701633 +0200,
2,0,2,0,7,0,7,0,4,0,4,0,385.0194102000096,,,,,,,,,,p3,3,2024-06-28_20h02.33.631,digit_span,2023.2.3,142.5843993135822,2024-06-28 20h02.41.701633 +0200,
2,0,2,0,7,0,7,0,5,0,5,0,386.12316080002347,,,,,,,,,,p3,3,2024-06-28_20h02.33.631,digit_span,2023.2.3,142.5843993135822,2024-06-28 20h02.41.701633 +0200,
2,0,2,0,7,0,7,0,6,0,6,0,387.22083080001175,,,,,,,,,,p3,3,2024-06-28_20h02.33.631,digit_span,2023.2.3,142.5843993135822,2024-06-28 20h02.41.701633 +0200,
2,0,2,0,7,0,7,0,7,0,7,0,388.3178928999696,,,20:09:11.010825,,,,,,,p3,3,2024-06-28_20h02.33.631,digit_span,2023.2.3,142.5843993135822,2024-06-28 20h02.41.701633 +0200,
2,0,2,0,7,0,7,0,,,,,,,,,"[1, 7, 4, 8, 9, 2, 6, 0]",2489232 ,space,2.3268416000064462,None,20:09:13.449795,p3,3,2024-06-28_20h02.33.631,digit_span,2023.2.3,142.5843993135822,2024-06-28 20h02.41.701633 +0200,
2,0,2,0,8,0,8,0,0,0,0,0,392.75535140000284,,20:09:13.449795,,,,,,,,p3,3,2024-06-28_20h02.33.631,digit_span,2023.2.3,142.5843993135822,2024-06-28 20h02.41.701633 +0200,
2,0,2,0,8,0,8,0,1,0,1,0,393.85956170002464,,,,,,,,,,p3,3,2024-06-28_20h02.33.631,digit_span,2023.2.3,142.5843993135822,2024-06-28 20h02.41.701633 +0200,
2,0,2,0,8,0,8,0,2,0,2,0,394.9560133999912,,,,,,,,,,p3,3,2024-06-28_20h02.33.631,digit_span,2023.2.3,142.5843993135822,2024-06-28 20h02.41.701633 +0200,
2,0,2,0,8,0,8,0,3,0,3,0,396.0608286000206,,,,,,,,,,p3,3,2024-06-28_20h02.33.631,digit_span,2023.2.3,142.5843993135822,2024-06-28 20h02.41.701633 +0200,
2,0,2,0,8,0,8,0,4,0,4,0,397.15860560000874,,,,,,,,,,p3,3,2024-06-28_20h02.33.631,digit_span,2023.2.3,142.5843993135822,2024-06-28 20h02.41.701633 +0200,
2,0,2,0,8,0,8,0,5,0,5,0,398.26193410000997,,,,,,,,,,p3,3,2024-06-28_20h02.33.631,digit_span,2023.2.3,142.5843993135822,2024-06-28 20h02.41.701633 +0200,
2,0,2,0,8,0,8,0,6,0,6,0,399.3588956000167,,,,,,,,,,p3,3,2024-06-28_20h02.33.631,digit_span,2023.2.3,142.5843993135822,2024-06-28 20h02.41.701633 +0200,
2,0,2,0,8,0,8,0,7,0,7,0,400.4564742000075,,,20:09:23.150155,,,,,,,p3,3,2024-06-28_20h02.33.631,digit_span,2023.2.3,142.5843993135822,2024-06-28 20h02.41.701633 +0200,
2,0,2,0,8,0,8,0,,,,,,,,,"[6, 2, 3, 7, 9, 8, 0, 5]",62399823,space,2.5871171000180766,None,20:09:25.844705,p3,3,2024-06-28_20h02.33.631,digit_span,2023.2.3,142.5843993135822,2024-06-28 20h02.41.701633 +0200,
2,0,2,0,9,0,9,0,0,0,0,0,405.15083080000477,,20:09:25.844705,,,,,,,,p3,3,2024-06-28_20h02.33.631,digit_span,2023.2.3,142.5843993135822,2024-06-28 20h02.41.701633 +0200,
2,0,2,0,9,0,9,0,1,0,1,0,406.25732440000866,,,,,,,,,,p3,3,2024-06-28_20h02.33.631,digit_span,2023.2.3,142.5843993135822,2024-06-28 20h02.41.701633 +0200,
2,0,2,0,9,0,9,0,2,0,2,0,407.3514970999677,,,,,,,,,,p3,3,2024-06-28_20h02.33.631,digit_span,2023.2.3,142.5843993135822,2024-06-28 20h02.41.701633 +0200,
2,0,2,0,9,0,9,0,3,0,3,0,408.4561020999681,,,,,,,,,,p3,3,2024-06-28_20h02.33.631,digit_span,2023.2.3,142.5843993135822,2024-06-28 20h02.41.701633 +0200,
2,0,2,0,9,0,9,0,4,0,4,0,409.5534135000198,,,,,,,,,,p3,3,2024-06-28_20h02.33.631,digit_span,2023.2.3,142.5843993135822,2024-06-28 20h02.41.701633 +0200,
2,0,2,0,9,0,9,0,5,0,5,0,410.6576187000028,,,,,,,,,,p3,3,2024-06-28_20h02.33.631,digit_span,2023.2.3,142.5843993135822,2024-06-28 20h02.41.701633 +0200,
2,0,2,0,9,0,9,0,6,0,6,0,411.75621580000734,,,,,,,,,,p3,3,2024-06-28_20h02.33.631,digit_span,2023.2.3,142.5843993135822,2024-06-28 20h02.41.701633 +0200,
2,0,2,0,9,0,9,0,7,0,7,0,412.8518907999969,,,20:09:35.545584,,,,,,,p3,3,2024-06-28_20h02.33.631,digit_span,2023.2.3,142.5843993135822,2024-06-28 20h02.41.701633 +0200,
2,0,2,0,9,0,9,0,,,,,,,,,"[5, 4, 6, 9, 7, 0, 8, 2]",54697043,space,3.607851799984928,None,20:09:39.261847,p3,3,2024-06-28_20h02.33.631,digit_span,2023.2.3,142.5843993135822,2024-06-28 20h02.41.701633 +0200,
2,0,2,0,10,0,10,0,0,0,0,0,418.56735670001945,,20:09:39.261847,,,,,,,,p3,3,2024-06-28_20h02.33.631,digit_span,2023.2.3,142.5843993135822,2024-06-28 20h02.41.701633 +0200,
2,0,2,0,10,0,10,0,1,0,1,0,419.67087640002137,,,,,,,,,,p3,3,2024-06-28_20h02.33.631,digit_span,2023.2.3,142.5843993135822,2024-06-28 20h02.41.701633 +0200,
2,0,2,0,10,0,10,0,2,0,2,0,420.76801419997355,,,,,,,,,,p3,3,2024-06-28_20h02.33.631,digit_span,2023.2.3,142.5843993135822,2024-06-28 20h02.41.701633 +0200,
2,0,2,0,10,0,10,0,3,0,3,0,421.87264680000953,,,,,,,,,,p3,3,2024-06-28_20h02.33.631,digit_span,2023.2.3,142.5843993135822,2024-06-28 20h02.41.701633 +0200,
2,0,2,0,10,0,10,0,4,0,4,0,422.9697879999876,,,,,,,,,,p3,3,2024-06-28_20h02.33.631,digit_span,2023.2.3,142.5843993135822,2024-06-28 20h02.41.701633 +0200,
2,0,2,0,10,0,10,0,5,0,5,0,424.07342099997913,,,,,,,,,,p3,3,2024-06-28_20h02.33.631,digit_span,2023.2.3,142.5843993135822,2024-06-28 20h02.41.701633 +0200,
2,0,2,0,10,0,10,0,6,0,6,0,425.1712384999846,,,,,,,,,,p3,3,2024-06-28_20h02.33.631,digit_span,2023.2.3,142.5843993135822,2024-06-28 20h02.41.701633 +0200,
2,0,2,0,10,0,10,0,7,0,7,0,426.2686537000118,,,20:09:48.961434,,,,,,,p3,3,2024-06-28_20h02.33.631,digit_span,2023.2.3,142.5843993135822,2024-06-28 20h02.41.701633 +0200,
2,0,2,0,10,0,10,0,,,,,,,,,"[5, 6, 7, 1, 0, 9, 2, 3]",54232 ,space,7.4441054000053555,None,20:09:56.517925,p3,3,2024-06-28_20h02.33.631,digit_span,2023.2.3,142.5843993135822,2024-06-28 20h02.41.701633 +0200,
2,0,2,0,11,0,11,0,0,0,0,0,435.8241191999987,,20:09:56.517925,,,,,,,,p3,3,2024-06-28_20h02.33.631,digit_span,2023.2.3,142.5843993135822,2024-06-28 20h02.41.701633 +0200,
2,0,2,0,11,0,11,0,1,0,1,0,436.9277115999721,,,,,,,,,,p3,3,2024-06-28_20h02.33.631,digit_span,2023.2.3,142.5843993135822,2024-06-28 20h02.41.701633 +0200,
2,0,2,0,11,0,11,0,2,0,2,0,438.02508960000705,,,,,,,,,,p3,3,2024-06-28_20h02.33.631,digit_span,2023.2.3,142.5843993135822,2024-06-28 20h02.41.701633 +0200,
2,0,2,0,11,0,11,0,3,0,3,0,439.12927299999865,,,,,,,,,,p3,3,2024-06-28_20h02.33.631,digit_span,2023.2.3,142.5843993135822,2024-06-28 20h02.41.701633 +0200,
2,0,2,0,11,0,11,0,4,0,4,0,440.22643019998213,,,,,,,,,,p3,3,2024-06-28_20h02.33.631,digit_span,2023.2.3,142.5843993135822,2024-06-28 20h02.41.701633 +0200,
2,0,2,0,11,0,11,0,5,0,5,0,441.33060039998963,,,,,,,,,,p3,3,2024-06-28_20h02.33.631,digit_span,2023.2.3,142.5843993135822,2024-06-28 20h02.41.701633 +0200,
2,0,2,0,11,0,11,0,6,0,6,0,442.427698399988,,,,,,,,,,p3,3,2024-06-28_20h02.33.631,digit_span,2023.2.3,142.5843993135822,2024-06-28 20h02.41.701633 +0200,
2,0,2,0,11,0,11,0,7,0,7,0,443.5249896000023,,,20:10:06.218396,,,,,,,p3,3,2024-06-28_20h02.33.631,digit_span,2023.2.3,142.5843993135822,2024-06-28 20h02.41.701633 +0200,
2,0,2,0,11,0,11,0,,,,,,,,,"[2, 4, 6, 7, 1, 3, 8, 9]",24678,space,5.276082500000484,None,20:10:11.601421,p3,3,2024-06-28_20h02.33.631,digit_span,2023.2.3,142.5843993135822,2024-06-28 20h02.41.701633 +0200,
2,0,2,0,12,0,12,0,0,0,0,0,450.90675389999524,,20:10:11.602417,,,,,,,,p3,3,2024-06-28_20h02.33.631,digit_span,2023.2.3,142.5843993135822,2024-06-28 20h02.41.701633 +0200,
2,0,2,0,12,0,12,0,1,0,1,0,452.0108885000227,,,,,,,,,,p3,3,2024-06-28_20h02.33.631,digit_span,2023.2.3,142.5843993135822,2024-06-28 20h02.41.701633 +0200,
2,0,2,0,12,0,12,0,2,0,2,0,453.1150899999775,,,,,,,,,,p3,3,2024-06-28_20h02.33.631,digit_span,2023.2.3,142.5843993135822,2024-06-28 20h02.41.701633 +0200,
2,0,2,0,12,0,12,0,3,0,3,0,454.21175000001676,,,,,,,,,,p3,3,2024-06-28_20h02.33.631,digit_span,2023.2.3,142.5843993135822,2024-06-28 20h02.41.701633 +0200,
2,0,2,0,12,0,12,0,4,0,4,0,455.3109705999959,,,,,,,,,,p3,3,2024-06-28_20h02.33.631,digit_span,2023.2.3,142.5843993135822,2024-06-28 20h02.41.701633 +0200,
2,0,2,0,12,0,12,0,5,0,5,0,456.41613269998925,,,,,,,,,,p3,3,2024-06-28_20h02.33.631,digit_span,2023.2.3,142.5843993135822,2024-06-28 20h02.41.701633 +0200,
2,0,2,0,12,0,12,0,6,0,6,0,457.51034689997323,,,,,,,,,,p3,3,2024-06-28_20h02.33.631,digit_span,2023.2.3,142.5843993135822,2024-06-28 20h02.41.701633 +0200,
2,0,2,0,12,0,12,0,7,0,7,0,458.61601840000367,,,20:10:21.308831,,,,,,,p3,3,2024-06-28_20h02.33.631,digit_span,2023.2.3,142.5843993135822,2024-06-28 20h02.41.701633 +0200,
2,0,2,0,12,0,12,0,,,,,,,,,"[7, 9, 3, 4, 5, 6, 8, 0]",245646 ,space,15.658662600035314,None,20:10:37.071755,p3,3,2024-06-28_20h02.33.631,digit_span,2023.2.3,142.5843993135822,2024-06-28 20h02.41.701633 +0200,
2,0,2,0,13,0,13,0,0,0,0,0,476.3816109999898,,20:10:37.071755,,,,,,,,p3,3,2024-06-28_20h02.33.631,digit_span,2023.2.3,142.5843993135822,2024-06-28 20h02.41.701633 +0200,
2,0,2,0,13,0,13,0,1,0,1,0,477.48249959998066,,,,,,,,,,p3,3,2024-06-28_20h02.33.631,digit_span,2023.2.3,142.5843993135822,2024-06-28 20h02.41.701633 +0200,
2,0,2,0,13,0,13,0,2,0,2,0,478.57911320001585,,,,,,,,,,p3,3,2024-06-28_20h02.33.631,digit_span,2023.2.3,142.5843993135822,2024-06-28 20h02.41.701633 +0200,
2,0,2,0,13,0,13,0,3,0,3,0,479.6839664999861,,,,,,,,,,p3,3,2024-06-28_20h02.33.631,digit_span,2023.2.3,142.5843993135822,2024-06-28 20h02.41.701633 +0200,
2,0,2,0,13,0,13,0,4,0,4,0,480.78124829998706,,,,,,,,,,p3,3,2024-06-28_20h02.33.631,digit_span,2023.2.3,142.5843993135822,2024-06-28 20h02.41.701633 +0200,
2,0,2,0,13,0,13,0,5,0,5,0,481.8858730000211,,,,,,,,,,p3,3,2024-06-28_20h02.33.631,digit_span,2023.2.3,142.5843993135822,2024-06-28 20h02.41.701633 +0200,
2,0,2,0,13,0,13,0,6,0,6,0,482.98238990001846,,,,,,,,,,p3,3,2024-06-28_20h02.33.631,digit_span,2023.2.3,142.5843993135822,2024-06-28 20h02.41.701633 +0200,
2,0,2,0,13,0,13,0,7,0,7,0,484.0789883999969,,,20:10:46.773602,,,,,,,p3,3,2024-06-28_20h02.33.631,digit_span,2023.2.3,142.5843993135822,2024-06-28 20h02.41.701633 +0200,
2,0,2,0,13,0,13,0,,,,,,,,,"[3, 1, 8, 5, 9, 2, 4, 6]",315866 ,space,2.735779399983585,None,20:10:49.621061,p3,3,2024-06-28_20h02.33.631,digit_span,2023.2.3,142.5843993135822,2024-06-28 20h02.41.701633 +0200,
2,0,2,0,14,0,14,0,0,0,0,0,488.9267803999828,,20:10:49.621061,,,,,,,,p3,3,2024-06-28_20h02.33.631,digit_span,2023.2.3,142.5843993135822,2024-06-28 20h02.41.701633 +0200,
2,0,2,0,14,0,14,0,1,0,1,0,490.0309578999877,,,,,,,,,,p3,3,2024-06-28_20h02.33.631,digit_span,2023.2.3,142.5843993135822,2024-06-28 20h02.41.701633 +0200,
2,0,2,0,14,0,14,0,2,0,2,0,491.129217699985,,,,,,,,,,p3,3,2024-06-28_20h02.33.631,digit_span,2023.2.3,142.5843993135822,2024-06-28 20h02.41.701633 +0200,
2,0,2,0,14,0,14,0,3,0,3,0,492.2320883999928,,,,,,,,,,p3,3,2024-06-28_20h02.33.631,digit_span,2023.2.3,142.5843993135822,2024-06-28 20h02.41.701633 +0200,
2,0,2,0,14,0,14,0,4,0,4,0,493.3293697999907,,,,,,,,,,p3,3,2024-06-28_20h02.33.631,digit_span,2023.2.3,142.5843993135822,2024-06-28 20h02.41.701633 +0200,
2,0,2,0,14,0,14,0,5,0,5,0,494.4336711000069,,,,,,,,,,p3,3,2024-06-28_20h02.33.631,digit_span,2023.2.3,142.5843993135822,2024-06-28 20h02.41.701633 +0200,
2,0,2,0,14,0,14,0,6,0,6,0,495.5301419000025,,,,,,,,,,p3,3,2024-06-28_20h02.33.631,digit_span,2023.2.3,142.5843993135822,2024-06-28 20h02.41.701633 +0200,
2,0,2,0,14,0,14,0,7,0,7,0,496.6279318999732,,,20:10:59.321402,,,,,,,p3,3,2024-06-28_20h02.33.631,digit_span,2023.2.3,142.5843993135822,2024-06-28 20h02.41.701633 +0200,
2,0,2,0,14,0,14,0,,,,,,,,,"[5, 2, 0, 7, 4, 1, 3, 8]", ,space,1.0478263999684714,None,20:11:00.481279,p3,3,2024-06-28_20h02.33.631,digit_span,2023.2.3,142.5843993135822,2024-06-28 20h02.41.701633 +0200,
2,0,2,0,,,,,,,,,,,,,,,,,,,p3,3,2024-06-28_20h02.33.631,digit_span,2023.2.3,142.5843993135822,2024-06-28 20h02.41.701633 +0200,
2,0,2,0,,,,,,,,,,,,,,,,,,,p3,3,2024-06-28_20h02.33.631,digit_span,2023.2.3,142.5843993135822,2024-06-28 20h02.41.701633 +0200,
