cond.thisRepN,cond.thisTrialN,cond.thisN,cond.thisIndex,trials.thisRepN,trials.thisTrialN,trials.thisN,trials.thisIndex,digit_rep.thisRepN,digit_rep.thisTrialN,digit_rep.thisN,digit_rep.thisIndex,thisRow.t,notes,sequence_started,sequence_ended,digit_sequence,result_box.text,confirm_input.keys,confirm_input.rt,confirm_input.duration,input_ended,participant,order,date,expName,psychopyVersion,frameRate,expStart,
0,0,0,0,0,0,0,0,0,0,0,0,1.9727454000385478,,20:19:35.457888,,,,,,,,p4,4,2024-06-28_20h19.04.036,digit_span,2023.2.3,143.80977999282464,2024-06-28 20h19.34.548291 +0200,
0,0,0,0,0,0,0,0,1,0,1,0,3.02683710004203,,,,,,,,,,p4,4,2024-06-28_20h19.04.036,digit_span,2023.2.3,143.80977999282464,2024-06-28 20h19.34.548291 +0200,
0,0,0,0,0,0,0,0,2,0,2,0,4.130837400036398,,,,,,,,,,p4,4,2024-06-28_20h19.04.036,digit_span,2023.2.3,143.80977999282464,2024-06-28 20h19.34.548291 +0200,
0,0,0,0,0,0,0,0,3,0,3,0,5.226868199999444,,,,,,,,,,p4,4,2024-06-28_20h19.04.036,digit_span,2023.2.3,143.80977999282464,2024-06-28 20h19.34.548291 +0200,
0,0,0,0,0,0,0,0,4,0,4,0,6.330192100023851,,,20:19:41.858417,,,,,,,p4,4,2024-06-28_20h19.04.036,digit_span,2023.2.3,143.80977999282464,2024-06-28 20h19.34.548291 +0200,
0,0,0,0,0,0,0,0,,,,,,,,,"[7, 1, 3, 5, 9]",,space,-5.4454984000185505,0.14425930002471432,20:19:41.971324,p4,4,2024-06-28_20h19.04.036,digit_span,2023.2.3,143.80977999282464,2024-06-28 20h19.34.548291 +0200,
0,0,0,0,1,0,1,0,0,0,0,0,8.435761400032789,,20:19:41.973317,,,,,,,,p4,4,2024-06-28_20h19.04.036,digit_span,2023.2.3,143.80977999282464,2024-06-28 20h19.34.548291 +0200,
0,0,0,0,1,0,1,0,1,0,1,0,9.536004499997944,,,,,,,,,,p4,4,2024-06-28_20h19.04.036,digit_span,2023.2.3,143.80977999282464,2024-06-28 20h19.34.548291 +0200,
0,0,0,0,1,0,1,0,2,0,2,0,10.636419999995269,,,,,,,,,,p4,4,2024-06-28_20h19.04.036,digit_span,2023.2.3,143.80977999282464,2024-06-28 20h19.34.548291 +0200,
0,0,0,0,1,0,1,0,3,0,3,0,11.75077720003901,,,,,,,,,,p4,4,2024-06-28_20h19.04.036,digit_span,2023.2.3,143.80977999282464,2024-06-28 20h19.34.548291 +0200,
0,0,0,0,1,0,1,0,4,0,4,0,12.83825660002185,,,20:19:48.372651,,,,,,,p4,4,2024-06-28_20h19.04.036,digit_span,2023.2.3,143.80977999282464,2024-06-28 20h19.34.548291 +0200,
0,0,0,0,1,0,1,0,,,,,,,,,"[1, 3, 9, 6, 7]",,space,-2.291714699997101,0.15833999996539205,20:19:48.479165,p4,4,2024-06-28_20h19.04.036,digit_span,2023.2.3,143.80977999282464,2024-06-28 20h19.34.548291 +0200,
0,0,0,0,2,0,2,0,0,0,0,0,14.935754200036172,,20:19:48.480131,,,,,,,,p4,4,2024-06-28_20h19.04.036,digit_span,2023.2.3,143.80977999282464,2024-06-28 20h19.34.548291 +0200,
0,0,0,0,2,0,2,0,1,0,1,0,16.03961999999592,,,,,,,,,,p4,4,2024-06-28_20h19.04.036,digit_span,2023.2.3,143.80977999282464,2024-06-28 20h19.34.548291 +0200,
0,0,0,0,2,0,2,0,2,0,2,0,17.15766500000609,,,,,,,,,,p4,4,2024-06-28_20h19.04.036,digit_span,2023.2.3,143.80977999282464,2024-06-28 20h19.34.548291 +0200,
0,0,0,0,2,0,2,0,3,0,3,0,18.24810610001441,,,,,,,,,,p4,4,2024-06-28_20h19.04.036,digit_span,2023.2.3,143.80977999282464,2024-06-28 20h19.34.548291 +0200,
0,0,0,0,2,0,2,0,4,0,4,0,19.345037000020966,,,20:19:54.884381,,,,,,,p4,4,2024-06-28_20h19.04.036,digit_span,2023.2.3,143.80977999282464,2024-06-28 20h19.34.548291 +0200,
0,0,0,0,2,0,2,0,,,,,,,,,"[5, 1, 8, 2, 3]",71359267,space,4.997301700001117,None,20:19:59.985665,p4,4,2024-06-28_20h19.04.036,digit_span,2023.2.3,143.80977999282464,2024-06-28 20h19.34.548291 +0200,
0,0,0,0,3,0,3,0,0,0,0,0,26.45794079999905,,20:19:59.985665,,,,,,,,p4,4,2024-06-28_20h19.04.036,digit_span,2023.2.3,143.80977999282464,2024-06-28 20h19.34.548291 +0200,
0,0,0,0,3,0,3,0,1,0,1,0,27.5463366000331,,,,,,,,,,p4,4,2024-06-28_20h19.04.036,digit_span,2023.2.3,143.80977999282464,2024-06-28 20h19.34.548291 +0200,
0,0,0,0,3,0,3,0,2,0,2,0,28.65036070003407,,,,,,,,,,p4,4,2024-06-28_20h19.04.036,digit_span,2023.2.3,143.80977999282464,2024-06-28 20h19.34.548291 +0200,
0,0,0,0,3,0,3,0,3,0,3,0,29.74750940001104,,,,,,,,,,p4,4,2024-06-28_20h19.04.036,digit_span,2023.2.3,143.80977999282464,2024-06-28 20h19.34.548291 +0200,
0,0,0,0,3,0,3,0,4,0,4,0,30.847785099991597,,,20:20:06.392417,,,,,,,p4,4,2024-06-28_20h19.04.036,digit_span,2023.2.3,143.80977999282464,2024-06-28 20h19.34.548291 +0200,
0,0,0,0,3,0,3,0,,,,,,,,,"[4, 1, 5, 6, 7]",678212,space,3.4843274999875575,None,20:20:09.976224,p4,4,2024-06-28_20h19.04.036,digit_span,2023.2.3,143.80977999282464,2024-06-28 20h19.34.548291 +0200,
0,0,0,0,4,0,4,0,0,0,0,0,36.435343499993905,,20:20:09.976224,,,,,,,,p4,4,2024-06-28_20h19.04.036,digit_span,2023.2.3,143.80977999282464,2024-06-28 20h19.34.548291 +0200,
0,0,0,0,4,0,4,0,1,0,1,0,37.539488600043114,,,,,,,,,,p4,4,2024-06-28_20h19.04.036,digit_span,2023.2.3,143.80977999282464,2024-06-28 20h19.34.548291 +0200,
0,0,0,0,4,0,4,0,2,0,2,0,38.65125260001514,,,,,,,,,,p4,4,2024-06-28_20h19.04.036,digit_span,2023.2.3,143.80977999282464,2024-06-28 20h19.34.548291 +0200,
0,0,0,0,4,0,4,0,3,0,3,0,39.74347480002325,,,,,,,,,,p4,4,2024-06-28_20h19.04.036,digit_span,2023.2.3,143.80977999282464,2024-06-28 20h19.34.548291 +0200,
0,0,0,0,4,0,4,0,4,0,4,0,40.84237450000364,,,20:20:16.377315,,,,,,,p4,4,2024-06-28_20h19.04.036,digit_span,2023.2.3,143.80977999282464,2024-06-28 20h19.34.548291 +0200,
0,0,0,0,4,0,4,0,,,,,,,,,"[7, 8, 0, 9, 1]",78091,space,2.9154881999711506,None,20:20:19.400905,p4,4,2024-06-28_20h19.04.036,digit_span,2023.2.3,143.80977999282464,2024-06-28 20h19.34.548291 +0200,
0,0,0,0,5,0,5,0,0,0,0,0,45.868661000044085,,20:20:19.400905,,,,,,,,p4,4,2024-06-28_20h19.04.036,digit_span,2023.2.3,143.80977999282464,2024-06-28 20h19.34.548291 +0200,
0,0,0,0,5,0,5,0,1,0,1,0,46.965173900010996,,,,,,,,,,p4,4,2024-06-28_20h19.04.036,digit_span,2023.2.3,143.80977999282464,2024-06-28 20h19.34.548291 +0200,
0,0,0,0,5,0,5,0,2,0,2,0,48.06756080000196,,,,,,,,,,p4,4,2024-06-28_20h19.04.036,digit_span,2023.2.3,143.80977999282464,2024-06-28 20h19.34.548291 +0200,
0,0,0,0,5,0,5,0,3,0,3,0,49.16740890004439,,,,,,,,,,p4,4,2024-06-28_20h19.04.036,digit_span,2023.2.3,143.80977999282464,2024-06-28 20h19.34.548291 +0200,
0,0,0,0,5,0,5,0,4,0,4,0,50.267895099997986,,,20:20:25.807543,,,,,,,p4,4,2024-06-28_20h19.04.036,digit_span,2023.2.3,143.80977999282464,2024-06-28 20h19.34.548291 +0200,
0,0,0,0,5,0,5,0,,,,,,,,,"[9, 1, 4, 8, 3]",91483,space,2.4011790999793448,None,20:20:28.315067,p4,4,2024-06-28_20h19.04.036,digit_span,2023.2.3,143.80977999282464,2024-06-28 20h19.34.548291 +0200,
0,0,0,0,6,0,6,0,0,0,0,0,54.77501330000814,,20:20:28.315067,,,,,,,,p4,4,2024-06-28_20h19.04.036,digit_span,2023.2.3,143.80977999282464,2024-06-28 20h19.34.548291 +0200,
0,0,0,0,6,0,6,0,1,0,1,0,55.87957950000418,,,,,,,,,,p4,4,2024-06-28_20h19.04.036,digit_span,2023.2.3,143.80977999282464,2024-06-28 20h19.34.548291 +0200,
0,0,0,0,6,0,6,0,2,0,2,0,56.97617730003549,,,,,,,,,,p4,4,2024-06-28_20h19.04.036,digit_span,2023.2.3,143.80977999282464,2024-06-28 20h19.34.548291 +0200,
0,0,0,0,6,0,6,0,3,0,3,0,58.08021879999433,,,,,,,,,,p4,4,2024-06-28_20h19.04.036,digit_span,2023.2.3,143.80977999282464,2024-06-28 20h19.34.548291 +0200,
0,0,0,0,6,0,6,0,4,0,4,0,59.17774600000121,,,20:20:34.718491,,,,,,,p4,4,2024-06-28_20h19.04.036,digit_span,2023.2.3,143.80977999282464,2024-06-28 20h19.34.548291 +0200,
0,0,0,0,6,0,6,0,,,,,,,,,"[0, 3, 1, 9, 7]",82314,space,3.444548900006339,None,20:20:38.274111,p4,4,2024-06-28_20h19.04.036,digit_span,2023.2.3,143.80977999282464,2024-06-28 20h19.34.548291 +0200,
0,0,0,0,7,0,7,0,0,0,0,0,64.73302740004146,,20:20:38.274111,,,,,,,,p4,4,2024-06-28_20h19.04.036,digit_span,2023.2.3,143.80977999282464,2024-06-28 20h19.34.548291 +0200,
0,0,0,0,7,0,7,0,1,0,1,0,65.83652770001208,,,,,,,,,,p4,4,2024-06-28_20h19.04.036,digit_span,2023.2.3,143.80977999282464,2024-06-28 20h19.34.548291 +0200,
0,0,0,0,7,0,7,0,2,0,2,0,66.93418430001475,,,,,,,,,,p4,4,2024-06-28_20h19.04.036,digit_span,2023.2.3,143.80977999282464,2024-06-28 20h19.34.548291 +0200,
0,0,0,0,7,0,7,0,3,0,3,0,68.03849760000594,,,,,,,,,,p4,4,2024-06-28_20h19.04.036,digit_span,2023.2.3,143.80977999282464,2024-06-28 20h19.34.548291 +0200,
0,0,0,0,7,0,7,0,4,0,4,0,69.13552260003053,,,20:20:44.675033,,,,,,,p4,4,2024-06-28_20h19.04.036,digit_span,2023.2.3,143.80977999282464,2024-06-28 20h19.34.548291 +0200,
0,0,0,0,7,0,7,0,,,,,,,,,"[5, 0, 6, 4, 8]",5084823 ,space,4.12456830003066,None,20:20:48.912154,p4,4,2024-06-28_20h19.04.036,digit_span,2023.2.3,143.80977999282464,2024-06-28 20h19.34.548291 +0200,
0,0,0,0,8,0,8,0,0,0,0,0,75.37617860001046,,20:20:48.912154,,,,,,,,p4,4,2024-06-28_20h19.04.036,digit_span,2023.2.3,143.80977999282464,2024-06-28 20h19.34.548291 +0200,
0,0,0,0,8,0,8,0,1,0,1,0,76.47936190001201,,,,,,,,,,p4,4,2024-06-28_20h19.04.036,digit_span,2023.2.3,143.80977999282464,2024-06-28 20h19.34.548291 +0200,
0,0,0,0,8,0,8,0,2,0,2,0,77.57439860003069,,,,,,,,,,p4,4,2024-06-28_20h19.04.036,digit_span,2023.2.3,143.80977999282464,2024-06-28 20h19.34.548291 +0200,
0,0,0,0,8,0,8,0,3,0,3,0,78.67762550001498,,,,,,,,,,p4,4,2024-06-28_20h19.04.036,digit_span,2023.2.3,143.80977999282464,2024-06-28 20h19.34.548291 +0200,
0,0,0,0,8,0,8,0,4,0,4,0,79.77415850001853,,,20:20:55.314711,,,,,,,p4,4,2024-06-28_20h19.04.036,digit_span,2023.2.3,143.80977999282464,2024-06-28 20h19.34.548291 +0200,
0,0,0,0,8,0,8,0,,,,,,,,,"[7, 2, 4, 1, 8]",3245483,space,3.5165470999781974,None,20:20:58.938968,p4,4,2024-06-28_20h19.04.036,digit_span,2023.2.3,143.80977999282464,2024-06-28 20h19.34.548291 +0200,
0,0,0,0,9,0,9,0,0,0,0,0,85.40275340003427,,20:20:58.939964,,,,,,,,p4,4,2024-06-28_20h19.04.036,digit_span,2023.2.3,143.80977999282464,2024-06-28 20h19.34.548291 +0200,
0,0,0,0,9,0,9,0,1,0,1,0,86.50853200000711,,,,,,,,,,p4,4,2024-06-28_20h19.04.036,digit_span,2023.2.3,143.80977999282464,2024-06-28 20h19.34.548291 +0200,
0,0,0,0,9,0,9,0,2,0,2,0,87.60128990001976,,,,,,,,,,p4,4,2024-06-28_20h19.04.036,digit_span,2023.2.3,143.80977999282464,2024-06-28 20h19.34.548291 +0200,
0,0,0,0,9,0,9,0,3,0,3,0,88.70851550000953,,,,,,,,,,p4,4,2024-06-28_20h19.04.036,digit_span,2023.2.3,143.80977999282464,2024-06-28 20h19.34.548291 +0200,
0,0,0,0,9,0,9,0,4,0,4,0,89.80147770000622,,,20:21:05.341728,,,,,,,p4,4,2024-06-28_20h19.04.036,digit_span,2023.2.3,143.80977999282464,2024-06-28 20h19.34.548291 +0200,
0,0,0,0,9,0,9,0,,,,,,,,,"[8, 3, 9, 7, 0]",83970,space,2.400815100001637,None,20:21:07.849212,p4,4,2024-06-28_20h19.04.036,digit_span,2023.2.3,143.80977999282464,2024-06-28 20h19.34.548291 +0200,
0,0,0,0,10,0,10,0,0,0,0,0,94.30811159999575,,20:21:07.849212,,,,,,,,p4,4,2024-06-28_20h19.04.036,digit_span,2023.2.3,143.80977999282464,2024-06-28 20h19.34.548291 +0200,
0,0,0,0,10,0,10,0,1,0,1,0,95.41987899999367,,,,,,,,,,p4,4,2024-06-28_20h19.04.036,digit_span,2023.2.3,143.80977999282464,2024-06-28 20h19.34.548291 +0200,
0,0,0,0,10,0,10,0,2,0,2,0,96.50978280004347,,,,,,,,,,p4,4,2024-06-28_20h19.04.036,digit_span,2023.2.3,143.80977999282464,2024-06-28 20h19.34.548291 +0200,
0,0,0,0,10,0,10,0,3,0,3,0,97.61398650001502,,,,,,,,,,p4,4,2024-06-28_20h19.04.036,digit_span,2023.2.3,143.80977999282464,2024-06-28 20h19.34.548291 +0200,
0,0,0,0,10,0,10,0,4,0,4,0,98.71122800000012,,,20:21:14.250871,,,,,,,p4,4,2024-06-28_20h19.04.036,digit_span,2023.2.3,143.80977999282464,2024-06-28 20h19.34.548291 +0200,
0,0,0,0,10,0,10,0,,,,,,,,,"[8, 7, 0, 3, 1]",87031,space,2.4302519999910146,None,20:21:16.788272,p4,4,2024-06-28_20h19.04.036,digit_span,2023.2.3,143.80977999282464,2024-06-28 20h19.34.548291 +0200,
0,0,0,0,11,0,11,0,0,0,0,0,103.2459543000441,,20:21:16.789340,,,,,,,,p4,4,2024-06-28_20h19.04.036,digit_span,2023.2.3,143.80977999282464,2024-06-28 20h19.34.548291 +0200,
0,0,0,0,11,0,11,0,1,0,1,0,104.34966360003455,,,,,,,,,,p4,4,2024-06-28_20h19.04.036,digit_span,2023.2.3,143.80977999282464,2024-06-28 20h19.34.548291 +0200,
0,0,0,0,11,0,11,0,2,0,2,0,105.4582012000028,,,,,,,,,,p4,4,2024-06-28_20h19.04.036,digit_span,2023.2.3,143.80977999282464,2024-06-28 20h19.34.548291 +0200,
0,0,0,0,11,0,11,0,3,0,3,0,106.55340410000645,,,,,,,,,,p4,4,2024-06-28_20h19.04.036,digit_span,2023.2.3,143.80977999282464,2024-06-28 20h19.34.548291 +0200,
0,0,0,0,11,0,11,0,4,0,4,0,107.65683069999795,,,20:21:23.188675,,,,,,,p4,4,2024-06-28_20h19.04.036,digit_span,2023.2.3,143.80977999282464,2024-06-28 20h19.34.548291 +0200,
0,0,0,0,11,0,11,0,,,,,,,,,"[5, 9, 8, 3, 0]",53421 ,space,6.56357359996764,None,20:21:29.869996,p4,4,2024-06-28_20h19.04.036,digit_span,2023.2.3,143.80977999282464,2024-06-28 20h19.34.548291 +0200,
0,0,0,0,12,0,12,0,0,0,0,0,116.32949760003248,,20:21:29.869996,,,,,,,,p4,4,2024-06-28_20h19.04.036,digit_span,2023.2.3,143.80977999282464,2024-06-28 20h19.34.548291 +0200,
0,0,0,0,12,0,12,0,1,0,1,0,117.4340366999968,,,,,,,,,,p4,4,2024-06-28_20h19.04.036,digit_span,2023.2.3,143.80977999282464,2024-06-28 20h19.34.548291 +0200,
0,0,0,0,12,0,12,0,2,0,2,0,118.53546520002419,,,,,,,,,,p4,4,2024-06-28_20h19.04.036,digit_span,2023.2.3,143.80977999282464,2024-06-28 20h19.34.548291 +0200,
0,0,0,0,12,0,12,0,3,0,3,0,119.64192220004043,,,,,,,,,,p4,4,2024-06-28_20h19.04.036,digit_span,2023.2.3,143.80977999282464,2024-06-28 20h19.34.548291 +0200,
0,0,0,0,12,0,12,0,4,0,4,0,120.73835300002247,,,20:21:36.271513,,,,,,,p4,4,2024-06-28_20h19.04.036,digit_span,2023.2.3,143.80977999282464,2024-06-28 20h19.34.548291 +0200,
0,0,0,0,12,0,12,0,,,,,,,,,"[0, 4, 2, 7, 3]",54231,space,1.913041100022383,None,20:21:38.293020,p4,4,2024-06-28_20h19.04.036,digit_span,2023.2.3,143.80977999282464,2024-06-28 20h19.34.548291 +0200,
0,0,0,0,13,0,13,0,0,0,0,0,124.75868100003572,,20:21:38.293020,,,,,,,,p4,4,2024-06-28_20h19.04.036,digit_span,2023.2.3,143.80977999282464,2024-06-28 20h19.34.548291 +0200,
0,0,0,0,13,0,13,0,1,0,1,0,125.85694990004413,,,,,,,,,,p4,4,2024-06-28_20h19.04.036,digit_span,2023.2.3,143.80977999282464,2024-06-28 20h19.34.548291 +0200,
0,0,0,0,13,0,13,0,2,0,2,0,126.95454950002022,,,,,,,,,,p4,4,2024-06-28_20h19.04.036,digit_span,2023.2.3,143.80977999282464,2024-06-28 20h19.34.548291 +0200,
0,0,0,0,13,0,13,0,3,0,3,0,128.0580789000378,,,,,,,,,,p4,4,2024-06-28_20h19.04.036,digit_span,2023.2.3,143.80977999282464,2024-06-28 20h19.34.548291 +0200,
0,0,0,0,13,0,13,0,4,0,4,0,129.15513840003405,,,20:21:44.695252,,,,,,,p4,4,2024-06-28_20h19.04.036,digit_span,2023.2.3,143.80977999282464,2024-06-28 20h19.34.548291 +0200,
0,0,0,0,13,0,13,0,,,,,,,,,"[8, 9, 6, 0, 2]",879261 ,space,3.0586012999992818,None,20:21:47.862389,p4,4,2024-06-28_20h19.04.036,digit_span,2023.2.3,143.80977999282464,2024-06-28 20h19.34.548291 +0200,
0,0,0,0,14,0,14,0,0,0,0,0,134.32158590003382,,20:21:47.862389,,,,,,,,p4,4,2024-06-28_20h19.04.036,digit_span,2023.2.3,143.80977999282464,2024-06-28 20h19.34.548291 +0200,
0,0,0,0,14,0,14,0,1,0,1,0,135.42546480003512,,,,,,,,,,p4,4,2024-06-28_20h19.04.036,digit_span,2023.2.3,143.80977999282464,2024-06-28 20h19.34.548291 +0200,
0,0,0,0,14,0,14,0,2,0,2,0,136.52298130001873,,,,,,,,,,p4,4,2024-06-28_20h19.04.036,digit_span,2023.2.3,143.80977999282464,2024-06-28 20h19.34.548291 +0200,
0,0,0,0,14,0,14,0,3,0,3,0,137.62776050000684,,,,,,,,,,p4,4,2024-06-28_20h19.04.036,digit_span,2023.2.3,143.80977999282464,2024-06-28 20h19.34.548291 +0200,
0,0,0,0,14,0,14,0,4,0,4,0,138.7301906000357,,,20:21:54.263611,,,,,,,p4,4,2024-06-28_20h19.04.036,digit_span,2023.2.3,143.80977999282464,2024-06-28 20h19.34.548291 +0200,
0,0,0,0,14,0,14,0,,,,,,,,,"[0, 8, 3, 6, 1]",823165 ,space,5.791979000030551,None,20:22:00.167616,p4,4,2024-06-28_20h19.04.036,digit_span,2023.2.3,143.80977999282464,2024-06-28 20h19.34.548291 +0200,
0,0,0,0,,,,,,,,,,,,,,,,,,,p4,4,2024-06-28_20h19.04.036,digit_span,2023.2.3,143.80977999282464,2024-06-28 20h19.34.548291 +0200,
1,0,1,0,0,0,0,0,0,0,0,0,147.35602460004156,,20:22:00.896608,,,,,,,,p4,4,2024-06-28_20h19.04.036,digit_span,2023.2.3,143.80977999282464,2024-06-28 20h19.34.548291 +0200,
1,0,1,0,0,0,0,0,1,0,1,0,148.46401160000823,,,,,,,,,,p4,4,2024-06-28_20h19.04.036,digit_span,2023.2.3,143.80977999282464,2024-06-28 20h19.34.548291 +0200,
1,0,1,0,0,0,0,0,2,0,2,0,149.55834520002827,,,,,,,,,,p4,4,2024-06-28_20h19.04.036,digit_span,2023.2.3,143.80977999282464,2024-06-28 20h19.34.548291 +0200,
1,0,1,0,0,0,0,0,3,0,3,0,150.661284300033,,,,,,,,,,p4,4,2024-06-28_20h19.04.036,digit_span,2023.2.3,143.80977999282464,2024-06-28 20h19.34.548291 +0200,
1,0,1,0,0,0,0,0,4,0,4,0,151.76343240001006,,,,,,,,,,p4,4,2024-06-28_20h19.04.036,digit_span,2023.2.3,143.80977999282464,2024-06-28 20h19.34.548291 +0200,
1,0,1,0,0,0,0,0,5,0,5,0,152.8562548000482,,,,,,,,,,p4,4,2024-06-28_20h19.04.036,digit_span,2023.2.3,143.80977999282464,2024-06-28 20h19.34.548291 +0200,
1,0,1,0,0,0,0,0,6,0,6,0,153.9676643999992,,,,,,,,,,p4,4,2024-06-28_20h19.04.036,digit_span,2023.2.3,143.80977999282464,2024-06-28 20h19.34.548291 +0200,
1,0,1,0,0,0,0,0,7,0,7,0,155.06712260004133,,,20:22:10.597638,,,,,,,p4,4,2024-06-28_20h19.04.036,digit_span,2023.2.3,143.80977999282464,2024-06-28 20h19.34.548291 +0200,
1,0,1,0,0,0,0,0,,,,,,,,,"[0, 8, 7, 9, 4, 2, 6, 3]",79236 ,space,10.538004099973477,None,20:22:21.248845,p4,4,2024-06-28_20h19.04.036,digit_span,2023.2.3,143.80977999282464,2024-06-28 20h19.34.548291 +0200,
1,0,1,0,1,0,1,0,0,0,0,0,167.72008689999348,,20:22:21.248845,,,,,,,,p4,4,2024-06-28_20h19.04.036,digit_span,2023.2.3,143.80977999282464,2024-06-28 20h19.34.548291 +0200,
1,0,1,0,1,0,1,0,1,0,1,0,168.81390380003722,,,,,,,,,,p4,4,2024-06-28_20h19.04.036,digit_span,2023.2.3,143.80977999282464,2024-06-28 20h19.34.548291 +0200,
1,0,1,0,1,0,1,0,2,0,2,0,169.91096110001672,,,,,,,,,,p4,4,2024-06-28_20h19.04.036,digit_span,2023.2.3,143.80977999282464,2024-06-28 20h19.34.548291 +0200,
1,0,1,0,1,0,1,0,3,0,3,0,171.01055440003984,,,,,,,,,,p4,4,2024-06-28_20h19.04.036,digit_span,2023.2.3,143.80977999282464,2024-06-28 20h19.34.548291 +0200,
1,0,1,0,1,0,1,0,4,0,4,0,172.11287800001446,,,,,,,,,,p4,4,2024-06-28_20h19.04.036,digit_span,2023.2.3,143.80977999282464,2024-06-28 20h19.34.548291 +0200,
1,0,1,0,1,0,1,0,5,0,5,0,173.20966270001372,,,,,,,,,,p4,4,2024-06-28_20h19.04.036,digit_span,2023.2.3,143.80977999282464,2024-06-28 20h19.34.548291 +0200,
1,0,1,0,1,0,1,0,6,0,6,0,174.31510110001545,,,,,,,,,,p4,4,2024-06-28_20h19.04.036,digit_span,2023.2.3,143.80977999282464,2024-06-28 20h19.34.548291 +0200,
1,0,1,0,1,0,1,0,7,0,7,0,175.42272860003868,,,20:22:30.951063,,,,,,,p4,4,2024-06-28_20h19.04.036,digit_span,2023.2.3,143.80977999282464,2024-06-28 20h19.34.548291 +0200,
1,0,1,0,1,0,1,0,,,,,,,,,"[5, 4, 2, 8, 6, 7, 9, 3]",542863,space,2.960017500037793,None,20:22:34.021020,p4,4,2024-06-28_20h19.04.036,digit_span,2023.2.3,143.80977999282464,2024-06-28 20h19.34.548291 +0200,
1,0,1,0,2,0,2,0,0,0,0,0,180.488302999991,,20:22:34.021020,,,,,,,,p4,4,2024-06-28_20h19.04.036,digit_span,2023.2.3,143.80977999282464,2024-06-28 20h19.34.548291 +0200,
1,0,1,0,2,0,2,0,1,0,1,0,181.58848239999497,,,,,,,,,,p4,4,2024-06-28_20h19.04.036,digit_span,2023.2.3,143.80977999282464,2024-06-28 20h19.34.548291 +0200,
1,0,1,0,2,0,2,0,2,0,2,0,182.68282710004132,,,,,,,,,,p4,4,2024-06-28_20h19.04.036,digit_span,2023.2.3,143.80977999282464,2024-06-28 20h19.34.548291 +0200,
1,0,1,0,2,0,2,0,3,0,3,0,183.7864610000397,,,,,,,,,,p4,4,2024-06-28_20h19.04.036,digit_span,2023.2.3,143.80977999282464,2024-06-28 20h19.34.548291 +0200,
1,0,1,0,2,0,2,0,4,0,4,0,184.89078810001956,,,,,,,,,,p4,4,2024-06-28_20h19.04.036,digit_span,2023.2.3,143.80977999282464,2024-06-28 20h19.34.548291 +0200,
1,0,1,0,2,0,2,0,5,0,5,0,185.98717840004247,,,,,,,,,,p4,4,2024-06-28_20h19.04.036,digit_span,2023.2.3,143.80977999282464,2024-06-28 20h19.34.548291 +0200,
1,0,1,0,2,0,2,0,6,0,6,0,187.09017500001937,,,,,,,,,,p4,4,2024-06-28_20h19.04.036,digit_span,2023.2.3,143.80977999282464,2024-06-28 20h19.34.548291 +0200,
1,0,1,0,2,0,2,0,7,0,7,0,188.18476880004164,,,20:22:43.721724,,,,,,,p4,4,2024-06-28_20h19.04.036,digit_span,2023.2.3,143.80977999282464,2024-06-28 20h19.34.548291 +0200,
1,0,1,0,2,0,2,0,,,,,,,,,"[4, 2, 9, 6, 0, 1, 3, 5]",867987,space,1.2656554999994114,None,20:22:45.097663,p4,4,2024-06-28_20h19.04.036,digit_span,2023.2.3,143.80977999282464,2024-06-28 20h19.34.548291 +0200,
1,0,1,0,3,0,3,0,0,0,0,0,191.5564518000465,,20:22:45.097663,,,,,,,,p4,4,2024-06-28_20h19.04.036,digit_span,2023.2.3,143.80977999282464,2024-06-28 20h19.34.548291 +0200,
1,0,1,0,3,0,3,0,1,0,1,0,192.66893470002105,,,,,,,,,,p4,4,2024-06-28_20h19.04.036,digit_span,2023.2.3,143.80977999282464,2024-06-28 20h19.34.548291 +0200,
1,0,1,0,3,0,3,0,2,0,2,0,193.76445499999681,,,,,,,,,,p4,4,2024-06-28_20h19.04.036,digit_span,2023.2.3,143.80977999282464,2024-06-28 20h19.34.548291 +0200,
1,0,1,0,3,0,3,0,3,0,3,0,194.86147190001793,,,,,,,,,,p4,4,2024-06-28_20h19.04.036,digit_span,2023.2.3,143.80977999282464,2024-06-28 20h19.34.548291 +0200,
1,0,1,0,3,0,3,0,4,0,4,0,195.95894149999367,,,,,,,,,,p4,4,2024-06-28_20h19.04.036,digit_span,2023.2.3,143.80977999282464,2024-06-28 20h19.34.548291 +0200,
1,0,1,0,3,0,3,0,5,0,5,0,197.0631233000313,,,,,,,,,,p4,4,2024-06-28_20h19.04.036,digit_span,2023.2.3,143.80977999282464,2024-06-28 20h19.34.548291 +0200,
1,0,1,0,3,0,3,0,6,0,6,0,198.16006040002685,,,,,,,,,,p4,4,2024-06-28_20h19.04.036,digit_span,2023.2.3,143.80977999282464,2024-06-28 20h19.34.548291 +0200,
1,0,1,0,3,0,3,0,7,0,7,0,199.2644377000397,,,20:22:54.803838,,,,,,,p4,4,2024-06-28_20h19.04.036,digit_span,2023.2.3,143.80977999282464,2024-06-28 20h19.34.548291 +0200,
1,0,1,0,3,0,3,0,,,,,,,,,"[7, 0, 2, 3, 5, 6, 8, 4]",576879,space,1.5596277000149712,None,20:22:56.464939,p4,4,2024-06-28_20h19.04.036,digit_span,2023.2.3,143.80977999282464,2024-06-28 20h19.34.548291 +0200,
1,0,1,0,4,0,4,0,0,0,0,0,202.93109920003917,,20:22:56.465945,,,,,,,,p4,4,2024-06-28_20h19.04.036,digit_span,2023.2.3,143.80977999282464,2024-06-28 20h19.34.548291 +0200,
1,0,1,0,4,0,4,0,1,0,1,0,204.031091700017,,,,,,,,,,p4,4,2024-06-28_20h19.04.036,digit_span,2023.2.3,143.80977999282464,2024-06-28 20h19.34.548291 +0200,
1,0,1,0,4,0,4,0,2,0,2,0,205.12612680002348,,,,,,,,,,p4,4,2024-06-28_20h19.04.036,digit_span,2023.2.3,143.80977999282464,2024-06-28 20h19.34.548291 +0200,
1,0,1,0,4,0,4,0,3,0,3,0,206.22947920003207,,,,,,,,,,p4,4,2024-06-28_20h19.04.036,digit_span,2023.2.3,143.80977999282464,2024-06-28 20h19.34.548291 +0200,
1,0,1,0,4,0,4,0,4,0,4,0,207.32661190000363,,,,,,,,,,p4,4,2024-06-28_20h19.04.036,digit_span,2023.2.3,143.80977999282464,2024-06-28 20h19.34.548291 +0200,
1,0,1,0,4,0,4,0,5,0,5,0,208.43532550003147,,,,,,,,,,p4,4,2024-06-28_20h19.04.036,digit_span,2023.2.3,143.80977999282464,2024-06-28 20h19.34.548291 +0200,
1,0,1,0,4,0,4,0,6,0,6,0,209.5280814000289,,,,,,,,,,p4,4,2024-06-28_20h19.04.036,digit_span,2023.2.3,143.80977999282464,2024-06-28 20h19.34.548291 +0200,
1,0,1,0,4,0,4,0,7,0,7,0,210.63890660001198,,,20:23:06.172460,,,,,,,p4,4,2024-06-28_20h19.04.036,digit_span,2023.2.3,143.80977999282464,2024-06-28 20h19.34.548291 +0200,
1,0,1,0,4,0,4,0,,,,,,,,,"[7, 9, 1, 8, 4, 2, 6, 5]",79421 ,space,2.3306666999706067,None,20:23:08.611290,p4,4,2024-06-28_20h19.04.036,digit_span,2023.2.3,143.80977999282464,2024-06-28 20h19.34.548291 +0200,
1,0,1,0,5,0,5,0,0,0,0,0,215.06969530001516,,20:23:08.611290,,,,,,,,p4,4,2024-06-28_20h19.04.036,digit_span,2023.2.3,143.80977999282464,2024-06-28 20h19.34.548291 +0200,
1,0,1,0,5,0,5,0,1,0,1,0,216.1828510000487,,,,,,,,,,p4,4,2024-06-28_20h19.04.036,digit_span,2023.2.3,143.80977999282464,2024-06-28 20h19.34.548291 +0200,
1,0,1,0,5,0,5,0,2,0,2,0,217.27828950004186,,,,,,,,,,p4,4,2024-06-28_20h19.04.036,digit_span,2023.2.3,143.80977999282464,2024-06-28 20h19.34.548291 +0200,
1,0,1,0,5,0,5,0,3,0,3,0,218.37559930002317,,,,,,,,,,p4,4,2024-06-28_20h19.04.036,digit_span,2023.2.3,143.80977999282464,2024-06-28 20h19.34.548291 +0200,
1,0,1,0,5,0,5,0,4,0,4,0,219.47732000000542,,,,,,,,,,p4,4,2024-06-28_20h19.04.036,digit_span,2023.2.3,143.80977999282464,2024-06-28 20h19.34.548291 +0200,
1,0,1,0,5,0,5,0,5,0,5,0,220.5770425000228,,,,,,,,,,p4,4,2024-06-28_20h19.04.036,digit_span,2023.2.3,143.80977999282464,2024-06-28 20h19.34.548291 +0200,
1,0,1,0,5,0,5,0,6,0,6,0,221.67935769999167,,,,,,,,,,p4,4,2024-06-28_20h19.04.036,digit_span,2023.2.3,143.80977999282464,2024-06-28 20h19.34.548291 +0200,
1,0,1,0,5,0,5,0,7,0,7,0,222.7803543000482,,,20:23:18.314079,,,,,,,p4,4,2024-06-28_20h19.04.036,digit_span,2023.2.3,143.80977999282464,2024-06-28 20h19.34.548291 +0200,
1,0,1,0,5,0,5,0,,,,,,,,,"[4, 1, 5, 9, 7, 2, 8, 3]",415792,space,2.6952675000065938,None,20:23:21.113200,p4,4,2024-06-28_20h19.04.036,digit_span,2023.2.3,143.80977999282464,2024-06-28 20h19.34.548291 +0200,
1,0,1,0,6,0,6,0,0,0,0,0,227.58068549999734,,20:23:21.113200,,,,,,,,p4,4,2024-06-28_20h19.04.036,digit_span,2023.2.3,143.80977999282464,2024-06-28 20h19.34.548291 +0200,
1,0,1,0,6,0,6,0,1,0,1,0,228.67702510004165,,,,,,,,,,p4,4,2024-06-28_20h19.04.036,digit_span,2023.2.3,143.80977999282464,2024-06-28 20h19.34.548291 +0200,
1,0,1,0,6,0,6,0,2,0,2,0,229.77785910002422,,,,,,,,,,p4,4,2024-06-28_20h19.04.036,digit_span,2023.2.3,143.80977999282464,2024-06-28 20h19.34.548291 +0200,
1,0,1,0,6,0,6,0,3,0,3,0,230.87449660000857,,,,,,,,,,p4,4,2024-06-28_20h19.04.036,digit_span,2023.2.3,143.80977999282464,2024-06-28 20h19.34.548291 +0200,
1,0,1,0,6,0,6,0,4,0,4,0,231.98045440000715,,,,,,,,,,p4,4,2024-06-28_20h19.04.036,digit_span,2023.2.3,143.80977999282464,2024-06-28 20h19.34.548291 +0200,
1,0,1,0,6,0,6,0,5,0,5,0,233.08772130002035,,,,,,,,,,p4,4,2024-06-28_20h19.04.036,digit_span,2023.2.3,143.80977999282464,2024-06-28 20h19.34.548291 +0200,
1,0,1,0,6,0,6,0,6,0,6,0,234.17347700003302,,,,,,,,,,p4,4,2024-06-28_20h19.04.036,digit_span,2023.2.3,143.80977999282464,2024-06-28 20h19.34.548291 +0200,
1,0,1,0,6,0,6,0,7,0,7,0,235.28110449999804,,,20:23:30.817959,,,,,,,p4,4,2024-06-28_20h19.04.036,digit_span,2023.2.3,143.80977999282464,2024-06-28 20h19.34.548291 +0200,
1,0,1,0,6,0,6,0,,,,,,,,,"[2, 4, 3, 1, 7, 5, 6, 8]",32168,space,1.8381818999769166,None,20:23:32.755485,p4,4,2024-06-28_20h19.04.036,digit_span,2023.2.3,143.80977999282464,2024-06-28 20h19.34.548291 +0200,
1,0,1,0,7,0,7,0,0,0,0,0,239.21486880001612,,20:23:32.756491,,,,,,,,p4,4,2024-06-28_20h19.04.036,digit_span,2023.2.3,143.80977999282464,2024-06-28 20h19.34.548291 +0200,
1,0,1,0,7,0,7,0,1,0,1,0,240.32508430001326,,,,,,,,,,p4,4,2024-06-28_20h19.04.036,digit_span,2023.2.3,143.80977999282464,2024-06-28 20h19.34.548291 +0200,
1,0,1,0,7,0,7,0,2,0,2,0,241.42341170000145,,,,,,,,,,p4,4,2024-06-28_20h19.04.036,digit_span,2023.2.3,143.80977999282464,2024-06-28 20h19.34.548291 +0200,
1,0,1,0,7,0,7,0,3,0,3,0,242.52474439999787,,,,,,,,,,p4,4,2024-06-28_20h19.04.036,digit_span,2023.2.3,143.80977999282464,2024-06-28 20h19.34.548291 +0200,
1,0,1,0,7,0,7,0,4,0,4,0,243.62275340000633,,,,,,,,,,p4,4,2024-06-28_20h19.04.036,digit_span,2023.2.3,143.80977999282464,2024-06-28 20h19.34.548291 +0200,
1,0,1,0,7,0,7,0,5,0,5,0,244.722453400027,,,,,,,,,,p4,4,2024-06-28_20h19.04.036,digit_span,2023.2.3,143.80977999282464,2024-06-28 20h19.34.548291 +0200,
1,0,1,0,7,0,7,0,6,0,6,0,245.8184145000414,,,,,,,,,,p4,4,2024-06-28_20h19.04.036,digit_span,2023.2.3,143.80977999282464,2024-06-28 20h19.34.548291 +0200,
1,0,1,0,7,0,7,0,7,0,7,0,246.91614650003612,,,20:23:42.455922,,,,,,,p4,4,2024-06-28_20h19.04.036,digit_span,2023.2.3,143.80977999282464,2024-06-28 20h19.34.548291 +0200,
1,0,1,0,7,0,7,0,,,,,,,,,"[4, 2, 1, 6, 0, 8, 7, 5]",42175,space,2.5855161999934353,None,20:23:45.153523,p4,4,2024-06-28_20h19.04.036,digit_span,2023.2.3,143.80977999282464,2024-06-28 20h19.34.548291 +0200,
1,0,1,0,8,0,8,0,0,0,0,0,251.61762430000817,,20:23:45.154515,,,,,,,,p4,4,2024-06-28_20h19.04.036,digit_span,2023.2.3,143.80977999282464,2024-06-28 20h19.34.548291 +0200,
1,0,1,0,8,0,8,0,1,0,1,0,252.71974860003684,,,,,,,,,,p4,4,2024-06-28_20h19.04.036,digit_span,2023.2.3,143.80977999282464,2024-06-28 20h19.34.548291 +0200,
1,0,1,0,8,0,8,0,2,0,2,0,253.81885979999788,,,,,,,,,,p4,4,2024-06-28_20h19.04.036,digit_span,2023.2.3,143.80977999282464,2024-06-28 20h19.34.548291 +0200,
1,0,1,0,8,0,8,0,3,0,3,0,254.9183364000055,,,,,,,,,,p4,4,2024-06-28_20h19.04.036,digit_span,2023.2.3,143.80977999282464,2024-06-28 20h19.34.548291 +0200,
1,0,1,0,8,0,8,0,4,0,4,0,256.0207048000302,,,,,,,,,,p4,4,2024-06-28_20h19.04.036,digit_span,2023.2.3,143.80977999282464,2024-06-28 20h19.34.548291 +0200,
1,0,1,0,8,0,8,0,5,0,5,0,257.12236290000146,,,,,,,,,,p4,4,2024-06-28_20h19.04.036,digit_span,2023.2.3,143.80977999282464,2024-06-28 20h19.34.548291 +0200,
1,0,1,0,8,0,8,0,6,0,6,0,258.21429950004676,,,,,,,,,,p4,4,2024-06-28_20h19.04.036,digit_span,2023.2.3,143.80977999282464,2024-06-28 20h19.34.548291 +0200,
1,0,1,0,8,0,8,0,7,0,7,0,259.3187177000218,,,20:23:54.857936,,,,,,,p4,4,2024-06-28_20h19.04.036,digit_span,2023.2.3,143.80977999282464,2024-06-28 20h19.34.548291 +0200,
1,0,1,0,8,0,8,0,,,,,,,,,"[5, 2, 8, 1, 3, 9, 7, 0]",52810 ,space,2.172263699991163,None,20:23:57.137003,p4,4,2024-06-28_20h19.04.036,digit_span,2023.2.3,143.80977999282464,2024-06-28 20h19.34.548291 +0200,
1,0,1,0,9,0,9,0,0,0,0,0,263.6059789000428,,20:23:57.137003,,,,,,,,p4,4,2024-06-28_20h19.04.036,digit_span,2023.2.3,143.80977999282464,2024-06-28 20h19.34.548291 +0200,
1,0,1,0,9,0,9,0,1,0,1,0,264.7003947000485,,,,,,,,,,p4,4,2024-06-28_20h19.04.036,digit_span,2023.2.3,143.80977999282464,2024-06-28 20h19.34.548291 +0200,
1,0,1,0,9,0,9,0,2,0,2,0,265.80646019999404,,,,,,,,,,p4,4,2024-06-28_20h19.04.036,digit_span,2023.2.3,143.80977999282464,2024-06-28 20h19.34.548291 +0200,
1,0,1,0,9,0,9,0,3,0,3,0,266.9017357000266,,,,,,,,,,p4,4,2024-06-28_20h19.04.036,digit_span,2023.2.3,143.80977999282464,2024-06-28 20h19.34.548291 +0200,
1,0,1,0,9,0,9,0,4,0,4,0,267.99857840000186,,,,,,,,,,p4,4,2024-06-28_20h19.04.036,digit_span,2023.2.3,143.80977999282464,2024-06-28 20h19.34.548291 +0200,
1,0,1,0,9,0,9,0,5,0,5,0,269.10477160004666,,,,,,,,,,p4,4,2024-06-28_20h19.04.036,digit_span,2023.2.3,143.80977999282464,2024-06-28 20h19.34.548291 +0200,
1,0,1,0,9,0,9,0,6,0,6,0,270.19970040000044,,,,,,,,,,p4,4,2024-06-28_20h19.04.036,digit_span,2023.2.3,143.80977999282464,2024-06-28 20h19.34.548291 +0200,
1,0,1,0,9,0,9,0,7,0,7,0,271.2996553000412,,,20:24:06.837710,,,,,,,p4,4,2024-06-28_20h19.04.036,digit_span,2023.2.3,143.80977999282464,2024-06-28 20h19.34.548291 +0200,
1,0,1,0,9,0,9,0,,,,,,,,,"[6, 1, 4, 9, 0, 3, 8, 7]",61480 ,space,2.75803879997693,None,20:24:09.706706,p4,4,2024-06-28_20h19.04.036,digit_span,2023.2.3,143.80977999282464,2024-06-28 20h19.34.548291 +0200,
1,0,1,0,10,0,10,0,0,0,0,0,276.16479559999425,,20:24:09.706706,,,,,,,,p4,4,2024-06-28_20h19.04.036,digit_span,2023.2.3,143.80977999282464,2024-06-28 20h19.34.548291 +0200,
1,0,1,0,10,0,10,0,1,0,1,0,277.26977870002156,,,,,,,,,,p4,4,2024-06-28_20h19.04.036,digit_span,2023.2.3,143.80977999282464,2024-06-28 20h19.34.548291 +0200,
1,0,1,0,10,0,10,0,2,0,2,0,278.36993480002275,,,,,,,,,,p4,4,2024-06-28_20h19.04.036,digit_span,2023.2.3,143.80977999282464,2024-06-28 20h19.34.548291 +0200,
1,0,1,0,10,0,10,0,3,0,3,0,279.47046840004623,,,,,,,,,,p4,4,2024-06-28_20h19.04.036,digit_span,2023.2.3,143.80977999282464,2024-06-28 20h19.34.548291 +0200,
1,0,1,0,10,0,10,0,4,0,4,0,280.56760250002844,,,,,,,,,,p4,4,2024-06-28_20h19.04.036,digit_span,2023.2.3,143.80977999282464,2024-06-28 20h19.34.548291 +0200,
1,0,1,0,10,0,10,0,5,0,5,0,281.6773788999999,,,,,,,,,,p4,4,2024-06-28_20h19.04.036,digit_span,2023.2.3,143.80977999282464,2024-06-28 20h19.34.548291 +0200,
1,0,1,0,10,0,10,0,6,0,6,0,282.77345290000085,,,,,,,,,,p4,4,2024-06-28_20h19.04.036,digit_span,2023.2.3,143.80977999282464,2024-06-28 20h19.34.548291 +0200,
1,0,1,0,10,0,10,0,7,0,7,0,283.870051600039,,,20:24:19.413569,,,,,,,p4,4,2024-06-28_20h19.04.036,digit_span,2023.2.3,143.80977999282464,2024-06-28 20h19.34.548291 +0200,
1,0,1,0,10,0,10,0,,,,,,,,,"[9, 7, 4, 5, 2, 1, 6, 3]",9754263 ,space,2.611588599975221,None,20:24:22.132932,p4,4,2024-06-28_20h19.04.036,digit_span,2023.2.3,143.80977999282464,2024-06-28 20h19.34.548291 +0200,
1,0,1,0,11,0,11,0,0,0,0,0,288.59861960000126,,20:24:22.132932,,,,,,,,p4,4,2024-06-28_20h19.04.036,digit_span,2023.2.3,143.80977999282464,2024-06-28 20h19.34.548291 +0200,
1,0,1,0,11,0,11,0,1,0,1,0,289.69282240001485,,,,,,,,,,p4,4,2024-06-28_20h19.04.036,digit_span,2023.2.3,143.80977999282464,2024-06-28 20h19.34.548291 +0200,
1,0,1,0,11,0,11,0,2,0,2,0,290.80080180004006,,,,,,,,,,p4,4,2024-06-28_20h19.04.036,digit_span,2023.2.3,143.80977999282464,2024-06-28 20h19.34.548291 +0200,
1,0,1,0,11,0,11,0,3,0,3,0,291.8996594999917,,,,,,,,,,p4,4,2024-06-28_20h19.04.036,digit_span,2023.2.3,143.80977999282464,2024-06-28 20h19.34.548291 +0200,
1,0,1,0,11,0,11,0,4,0,4,0,292.99780980002834,,,,,,,,,,p4,4,2024-06-28_20h19.04.036,digit_span,2023.2.3,143.80977999282464,2024-06-28 20h19.34.548291 +0200,
1,0,1,0,11,0,11,0,5,0,5,0,294.0955662000342,,,,,,,,,,p4,4,2024-06-28_20h19.04.036,digit_span,2023.2.3,143.80977999282464,2024-06-28 20h19.34.548291 +0200,
1,0,1,0,11,0,11,0,6,0,6,0,295.20492980000563,,,,,,,,,,p4,4,2024-06-28_20h19.04.036,digit_span,2023.2.3,143.80977999282464,2024-06-28 20h19.34.548291 +0200,
1,0,1,0,11,0,11,0,7,0,7,0,296.2972525000223,,,20:24:31.836853,,,,,,,p4,4,2024-06-28_20h19.04.036,digit_span,2023.2.3,143.80977999282464,2024-06-28 20h19.34.548291 +0200,
1,0,1,0,11,0,11,0,,,,,,,,,"[8, 2, 4, 0, 1, 9, 7, 3]",3240416,space,7.925041300011799,None,20:24:39.865808,p4,4,2024-06-28_20h19.04.036,digit_span,2023.2.3,143.80977999282464,2024-06-28 20h19.34.548291 +0200,
1,0,1,0,12,0,12,0,0,0,0,0,306.3244661000208,,20:24:39.865808,,,,,,,,p4,4,2024-06-28_20h19.04.036,digit_span,2023.2.3,143.80977999282464,2024-06-28 20h19.34.548291 +0200,
1,0,1,0,12,0,12,0,1,0,1,0,307.4289215000463,,,,,,,,,,p4,4,2024-06-28_20h19.04.036,digit_span,2023.2.3,143.80977999282464,2024-06-28 20h19.34.548291 +0200,
1,0,1,0,12,0,12,0,2,0,2,0,308.53227210004115,,,,,,,,,,p4,4,2024-06-28_20h19.04.036,digit_span,2023.2.3,143.80977999282464,2024-06-28 20h19.34.548291 +0200,
1,0,1,0,12,0,12,0,3,0,3,0,309.6301297000027,,,,,,,,,,p4,4,2024-06-28_20h19.04.036,digit_span,2023.2.3,143.80977999282464,2024-06-28 20h19.34.548291 +0200,
1,0,1,0,12,0,12,0,4,0,4,0,310.7324113000068,,,,,,,,,,p4,4,2024-06-28_20h19.04.036,digit_span,2023.2.3,143.80977999282464,2024-06-28 20h19.34.548291 +0200,
1,0,1,0,12,0,12,0,5,0,5,0,311.83127510000486,,,,,,,,,,p4,4,2024-06-28_20h19.04.036,digit_span,2023.2.3,143.80977999282464,2024-06-28 20h19.34.548291 +0200,
1,0,1,0,12,0,12,0,6,0,6,0,312.9324545999989,,,,,,,,,,p4,4,2024-06-28_20h19.04.036,digit_span,2023.2.3,143.80977999282464,2024-06-28 20h19.34.548291 +0200,
1,0,1,0,12,0,12,0,7,0,7,0,314.02653279999504,,,20:24:49.566727,,,,,,,p4,4,2024-06-28_20h19.04.036,digit_span,2023.2.3,143.80977999282464,2024-06-28 20h19.34.548291 +0200,
1,0,1,0,12,0,12,0,,,,,,,,,"[3, 5, 2, 9, 6, 8, 0, 4]",3529681,space,4.030124300043099,None,20:24:53.705766,p4,4,2024-06-28_20h19.04.036,digit_span,2023.2.3,143.80977999282464,2024-06-28 20h19.34.548291 +0200,
1,0,1,0,13,0,13,0,0,0,0,0,320.16432400001213,,20:24:53.705766,,,,,,,,p4,4,2024-06-28_20h19.04.036,digit_span,2023.2.3,143.80977999282464,2024-06-28 20h19.34.548291 +0200,
1,0,1,0,13,0,13,0,1,0,1,0,321.2685879000346,,,,,,,,,,p4,4,2024-06-28_20h19.04.036,digit_span,2023.2.3,143.80977999282464,2024-06-28 20h19.34.548291 +0200,
1,0,1,0,13,0,13,0,2,0,2,0,322.3652747000451,,,,,,,,,,p4,4,2024-06-28_20h19.04.036,digit_span,2023.2.3,143.80977999282464,2024-06-28 20h19.34.548291 +0200,
1,0,1,0,13,0,13,0,3,0,3,0,323.4697207999998,,,,,,,,,,p4,4,2024-06-28_20h19.04.036,digit_span,2023.2.3,143.80977999282464,2024-06-28 20h19.34.548291 +0200,
1,0,1,0,13,0,13,0,4,0,4,0,324.56716500001494,,,,,,,,,,p4,4,2024-06-28_20h19.04.036,digit_span,2023.2.3,143.80977999282464,2024-06-28 20h19.34.548291 +0200,
1,0,1,0,13,0,13,0,5,0,5,0,325.67875780002214,,,,,,,,,,p4,4,2024-06-28_20h19.04.036,digit_span,2023.2.3,143.80977999282464,2024-06-28 20h19.34.548291 +0200,
1,0,1,0,13,0,13,0,6,0,6,0,326.77133990003495,,,,,,,,,,p4,4,2024-06-28_20h19.04.036,digit_span,2023.2.3,143.80977999282464,2024-06-28 20h19.34.548291 +0200,
1,0,1,0,13,0,13,0,7,0,7,0,327.8717859000317,,,20:25:03.405881,,,,,,,p4,4,2024-06-28_20h19.04.036,digit_span,2023.2.3,143.80977999282464,2024-06-28 20h19.34.548291 +0200,
1,0,1,0,13,0,13,0,,,,,,,,,"[9, 4, 1, 0, 5, 2, 6, 8]",941280 ,space,3.111168999981601,None,20:25:06.632326,p4,4,2024-06-28_20h19.04.036,digit_span,2023.2.3,143.80977999282464,2024-06-28 20h19.34.548291 +0200,
1,0,1,0,14,0,14,0,0,0,0,0,333.09426889999304,,20:25:06.633318,,,,,,,,p4,4,2024-06-28_20h19.04.036,digit_span,2023.2.3,143.80977999282464,2024-06-28 20h19.34.548291 +0200,
1,0,1,0,14,0,14,0,1,0,1,0,334.19896900001913,,,,,,,,,,p4,4,2024-06-28_20h19.04.036,digit_span,2023.2.3,143.80977999282464,2024-06-28 20h19.34.548291 +0200,
1,0,1,0,14,0,14,0,2,0,2,0,335.2967498000362,,,,,,,,,,p4,4,2024-06-28_20h19.04.036,digit_span,2023.2.3,143.80977999282464,2024-06-28 20h19.34.548291 +0200,
1,0,1,0,14,0,14,0,3,0,3,0,336.3942055000225,,,,,,,,,,p4,4,2024-06-28_20h19.04.036,digit_span,2023.2.3,143.80977999282464,2024-06-28 20h19.34.548291 +0200,
1,0,1,0,14,0,14,0,4,0,4,0,337.4972808000166,,,,,,,,,,p4,4,2024-06-28_20h19.04.036,digit_span,2023.2.3,143.80977999282464,2024-06-28 20h19.34.548291 +0200,
1,0,1,0,14,0,14,0,5,0,5,0,338.5953668000293,,,,,,,,,,p4,4,2024-06-28_20h19.04.036,digit_span,2023.2.3,143.80977999282464,2024-06-28 20h19.34.548291 +0200,
1,0,1,0,14,0,14,0,6,0,6,0,339.70649040001445,,,,,,,,,,p4,4,2024-06-28_20h19.04.036,digit_span,2023.2.3,143.80977999282464,2024-06-28 20h19.34.548291 +0200,
1,0,1,0,14,0,14,0,7,0,7,0,340.7954652000335,,,20:25:16.335239,,,,,,,p4,4,2024-06-28_20h19.04.036,digit_span,2023.2.3,143.80977999282464,2024-06-28 20h19.34.548291 +0200,
1,0,1,0,14,0,14,0,,,,,,,,,"[3, 1, 4, 5, 9, 2, 0, 6]",32608,space,3.321938599983696,None,20:25:19.767073,p4,4,2024-06-28_20h19.04.036,digit_span,2023.2.3,143.80977999282464,2024-06-28 20h19.34.548291 +0200,
1,0,1,0,,,,,,,,,,,,,,,,,,,p4,4,2024-06-28_20h19.04.036,digit_span,2023.2.3,143.80977999282464,2024-06-28 20h19.34.548291 +0200,
2,0,2,0,0,0,0,0,0,0,0,0,347.09415580000496,,20:25:20.636593,,,,,,,,p4,4,2024-06-28_20h19.04.036,digit_span,2023.2.3,143.80977999282464,2024-06-28 20h19.34.548291 +0200,
2,0,2,0,0,0,0,0,1,0,1,0,348.20283020002535,,,,,,,,,,p4,4,2024-06-28_20h19.04.036,digit_span,2023.2.3,143.80977999282464,2024-06-28 20h19.34.548291 +0200,
2,0,2,0,0,0,0,0,2,0,2,0,349.3048997000442,,,20:25:24.842674,,,,,,,p4,4,2024-06-28_20h19.04.036,digit_span,2023.2.3,143.80977999282464,2024-06-28 20h19.34.548291 +0200,
2,0,2,0,0,0,0,0,,,,,,,,,"[1, 7, 6]",176 ,space,1.4095580999855883,None,20:25:26.357521,p4,4,2024-06-28_20h19.04.036,digit_span,2023.2.3,143.80977999282464,2024-06-28 20h19.34.548291 +0200,
2,0,2,0,1,0,1,0,0,0,0,0,352.821427100047,,20:25:26.357521,,,,,,,,p4,4,2024-06-28_20h19.04.036,digit_span,2023.2.3,143.80977999282464,2024-06-28 20h19.34.548291 +0200,
2,0,2,0,1,0,1,0,1,0,1,0,353.92036630003713,,,,,,,,,,p4,4,2024-06-28_20h19.04.036,digit_span,2023.2.3,143.80977999282464,2024-06-28 20h19.34.548291 +0200,
2,0,2,0,1,0,1,0,2,0,2,0,355.0276434000116,,,20:25:30.557781,,,,,,,p4,4,2024-06-28_20h19.04.036,digit_span,2023.2.3,143.80977999282464,2024-06-28 20h19.34.548291 +0200,
2,0,2,0,1,0,1,0,,,,,,,,,"[1, 3, 7]",137,space,1.4218569999793544,None,20:25:32.088819,p4,4,2024-06-28_20h19.04.036,digit_span,2023.2.3,143.80977999282464,2024-06-28 20h19.34.548291 +0200,
2,0,2,0,2,0,2,0,0,0,0,0,358.55297200003406,,20:25:32.088819,,,,,,,,p4,4,2024-06-28_20h19.04.036,digit_span,2023.2.3,143.80977999282464,2024-06-28 20h19.34.548291 +0200,
2,0,2,0,2,0,2,0,1,0,1,0,359.64910020004027,,,,,,,,,,p4,4,2024-06-28_20h19.04.036,digit_span,2023.2.3,143.80977999282464,2024-06-28 20h19.34.548291 +0200,
2,0,2,0,2,0,2,0,2,0,2,0,360.7538710000226,,,20:25:36.289166,,,,,,,p4,4,2024-06-28_20h19.04.036,digit_span,2023.2.3,143.80977999282464,2024-06-28 20h19.34.548291 +0200,
2,0,2,0,2,0,2,0,,,,,,,,,"[1, 3, 7]",137,space,1.1754565000301227,None,20:25:37.574309,p4,4,2024-06-28_20h19.04.036,digit_span,2023.2.3,143.80977999282464,2024-06-28 20h19.34.548291 +0200,
2,0,2,0,3,0,3,0,0,0,0,0,364.03154019999783,,20:25:37.574309,,,,,,,,p4,4,2024-06-28_20h19.04.036,digit_span,2023.2.3,143.80977999282464,2024-06-28 20h19.34.548291 +0200,
2,0,2,0,3,0,3,0,1,0,1,0,365.13532570004463,,,,,,,,,,p4,4,2024-06-28_20h19.04.036,digit_span,2023.2.3,143.80977999282464,2024-06-28 20h19.34.548291 +0200,
2,0,2,0,3,0,3,0,2,0,2,0,366.2460692000459,,,20:25:41.774644,,,,,,,p4,4,2024-06-28_20h19.04.036,digit_span,2023.2.3,143.80977999282464,2024-06-28 20h19.34.548291 +0200,
2,0,2,0,3,0,3,0,,,,,,,,,"[9, 6, 4]",863,space,1.930136399983894,None,20:25:43.815469,p4,4,2024-06-28_20h19.04.036,digit_span,2023.2.3,143.80977999282464,2024-06-28 20h19.34.548291 +0200,
2,0,2,0,4,0,4,0,0,0,0,0,370.27433069999097,,20:25:43.815469,,,,,,,,p4,4,2024-06-28_20h19.04.036,digit_span,2023.2.3,143.80977999282464,2024-06-28 20h19.34.548291 +0200,
2,0,2,0,4,0,4,0,1,0,1,0,371.3856858999934,,,,,,,,,,p4,4,2024-06-28_20h19.04.036,digit_span,2023.2.3,143.80977999282464,2024-06-28 20h19.34.548291 +0200,
2,0,2,0,4,0,4,0,2,0,2,0,372.475294200005,,,20:25:48.016042,,,,,,,p4,4,2024-06-28_20h19.04.036,digit_span,2023.2.3,143.80977999282464,2024-06-28 20h19.34.548291 +0200,
2,0,2,0,4,0,4,0,,,,,,,,,"[1, 5, 0]",508,space,1.6998063999926671,None,20:25:49.822533,p4,4,2024-06-28_20h19.04.036,digit_span,2023.2.3,143.80977999282464,2024-06-28 20h19.34.548291 +0200,
2,0,2,0,5,0,5,0,0,0,0,0,376.28121340001235,,20:25:49.822533,,,,,,,,p4,4,2024-06-28_20h19.04.036,digit_span,2023.2.3,143.80977999282464,2024-06-28 20h19.34.548291 +0200,
2,0,2,0,5,0,5,0,1,0,1,0,377.39331770001445,,,,,,,,,,p4,4,2024-06-28_20h19.04.036,digit_span,2023.2.3,143.80977999282464,2024-06-28 20h19.34.548291 +0200,
2,0,2,0,5,0,5,0,2,0,2,0,378.48925760004204,,,20:25:54.028595,,,,,,,p4,4,2024-06-28_20h19.04.036,digit_span,2023.2.3,143.80977999282464,2024-06-28 20h19.34.548291 +0200,
2,0,2,0,5,0,5,0,,,,,,,,,"[9, 7, 2]",972 ,space,1.3335657000425272,None,20:25:55.471534,p4,4,2024-06-28_20h19.04.036,digit_span,2023.2.3,143.80977999282464,2024-06-28 20h19.34.548291 +0200,
2,0,2,0,6,0,6,0,0,0,0,0,381.93391000002157,,20:25:55.472923,,,,,,,,p4,4,2024-06-28_20h19.04.036,digit_span,2023.2.3,143.80977999282464,2024-06-28 20h19.34.548291 +0200,
2,0,2,0,6,0,6,0,1,0,1,0,383.0404188000248,,,,,,,,,,p4,4,2024-06-28_20h19.04.036,digit_span,2023.2.3,143.80977999282464,2024-06-28 20h19.34.548291 +0200,
2,0,2,0,6,0,6,0,2,0,2,0,384.1426063000108,,,20:25:59.675196,,,,,,,p4,4,2024-06-28_20h19.04.036,digit_span,2023.2.3,143.80977999282464,2024-06-28 20h19.34.548291 +0200,
2,0,2,0,6,0,6,0,,,,,,,,,"[5, 8, 2]",582,space,2.3474538999726065,None,20:26:02.127066,p4,4,2024-06-28_20h19.04.036,digit_span,2023.2.3,143.80977999282464,2024-06-28 20h19.34.548291 +0200,
2,0,2,0,7,0,7,0,0,0,0,0,388.5863642000477,,20:26:02.128061,,,,,,,,p4,4,2024-06-28_20h19.04.036,digit_span,2023.2.3,143.80977999282464,2024-06-28 20h19.34.548291 +0200,
2,0,2,0,7,0,7,0,1,0,1,0,389.6909061000333,,,,,,,,,,p4,4,2024-06-28_20h19.04.036,digit_span,2023.2.3,143.80977999282464,2024-06-28 20h19.34.548291 +0200,
2,0,2,0,7,0,7,0,2,0,2,0,390.78954230004456,,,20:26:06.334196,,,,,,,p4,4,2024-06-28_20h19.04.036,digit_span,2023.2.3,143.80977999282464,2024-06-28 20h19.34.548291 +0200,
2,0,2,0,7,0,7,0,,,,,,,,,"[8, 9, 2]",892 ,space,2.305445800011512,None,20:26:08.745027,p4,4,2024-06-28_20h19.04.036,digit_span,2023.2.3,143.80977999282464,2024-06-28 20h19.34.548291 +0200,
2,0,2,0,8,0,8,0,0,0,0,0,395.20939670002554,,20:26:08.745027,,,,,,,,p4,4,2024-06-28_20h19.04.036,digit_span,2023.2.3,143.80977999282464,2024-06-28 20h19.34.548291 +0200,
2,0,2,0,8,0,8,0,1,0,1,0,396.3114459000062,,,,,,,,,,p4,4,2024-06-28_20h19.04.036,digit_span,2023.2.3,143.80977999282464,2024-06-28 20h19.34.548291 +0200,
2,0,2,0,8,0,8,0,2,0,2,0,397.40879190003034,,,20:26:12.946257,,,,,,,p4,4,2024-06-28_20h19.04.036,digit_span,2023.2.3,143.80977999282464,2024-06-28 20h19.34.548291 +0200,
2,0,2,0,8,0,8,0,,,,,,,,,"[4, 5, 9]",892 ,space,3.5274611999629997,None,20:26:16.585347,p4,4,2024-06-28_20h19.04.036,digit_span,2023.2.3,143.80977999282464,2024-06-28 20h19.34.548291 +0200,
2,0,2,0,9,0,9,0,0,0,0,0,403.05550130002666,,20:26:16.585347,,,,,,,,p4,4,2024-06-28_20h19.04.036,digit_span,2023.2.3,143.80977999282464,2024-06-28 20h19.34.548291 +0200,
2,0,2,0,9,0,9,0,1,0,1,0,404.1485304000089,,,,,,,,,,p4,4,2024-06-28_20h19.04.036,digit_span,2023.2.3,143.80977999282464,2024-06-28 20h19.34.548291 +0200,
2,0,2,0,9,0,9,0,2,0,2,0,405.24909230001504,,,20:26:20.786167,,,,,,,p4,4,2024-06-28_20h19.04.036,digit_span,2023.2.3,143.80977999282464,2024-06-28 20h19.34.548291 +0200,
2,0,2,0,9,0,9,0,,,,,,,,,"[2, 5, 0]",250,space,1.3185408000135794,None,20:26:22.212611,p4,4,2024-06-28_20h19.04.036,digit_span,2023.2.3,143.80977999282464,2024-06-28 20h19.34.548291 +0200,
2,0,2,0,10,0,10,0,0,0,0,0,408.6708075000206,,20:26:22.212611,,,,,,,,p4,4,2024-06-28_20h19.04.036,digit_span,2023.2.3,143.80977999282464,2024-06-28 20h19.34.548291 +0200,
2,0,2,0,10,0,10,0,1,0,1,0,409.77415870002005,,,,,,,,,,p4,4,2024-06-28_20h19.04.036,digit_span,2023.2.3,143.80977999282464,2024-06-28 20h19.34.548291 +0200,
2,0,2,0,10,0,10,0,2,0,2,0,410.87757760001114,,,20:26:26.417719,,,,,,,p4,4,2024-06-28_20h19.04.036,digit_span,2023.2.3,143.80977999282464,2024-06-28 20h19.34.548291 +0200,
2,0,2,0,10,0,10,0,,,,,,,,,"[7, 6, 5]",765,space,0.9543929999927059,None,20:26:27.475622,p4,4,2024-06-28_20h19.04.036,digit_span,2023.2.3,143.80977999282464,2024-06-28 20h19.34.548291 +0200,
2,0,2,0,11,0,11,0,0,0,0,0,413.93899200001033,,20:26:27.475622,,,,,,,,p4,4,2024-06-28_20h19.04.036,digit_span,2023.2.3,143.80977999282464,2024-06-28 20h19.34.548291 +0200,
2,0,2,0,11,0,11,0,1,0,1,0,415.0459099000436,,,,,,,,,,p4,4,2024-06-28_20h19.04.036,digit_span,2023.2.3,143.80977999282464,2024-06-28 20h19.34.548291 +0200,
2,0,2,0,11,0,11,0,2,0,2,0,416.15221010003006,,,20:26:31.680973,,,,,,,p4,4,2024-06-28_20h19.04.036,digit_span,2023.2.3,143.80977999282464,2024-06-28 20h19.34.548291 +0200,
2,0,2,0,11,0,11,0,,,,,,,,,"[9, 7, 0]",970 ,space,1.1856547999777831,None,20:26:32.980376,p4,4,2024-06-28_20h19.04.036,digit_span,2023.2.3,143.80977999282464,2024-06-28 20h19.34.548291 +0200,
2,0,2,0,12,0,12,0,0,0,0,0,419.44723029999295,,20:26:32.981371,,,,,,,,p4,4,2024-06-28_20h19.04.036,digit_span,2023.2.3,143.80977999282464,2024-06-28 20h19.34.548291 +0200,
2,0,2,0,12,0,12,0,1,0,1,0,420.55091180000454,,,,,,,,,,p4,4,2024-06-28_20h19.04.036,digit_span,2023.2.3,143.80977999282464,2024-06-28 20h19.34.548291 +0200,
2,0,2,0,12,0,12,0,2,0,2,0,421.65768500004197,,,20:26:37.181863,,,,,,,p4,4,2024-06-28_20h19.04.036,digit_span,2023.2.3,143.80977999282464,2024-06-28 20h19.34.548291 +0200,
2,0,2,0,12,0,12,0,,,,,,,,,"[6, 5, 4]",273,space,2.9459531999891624,None,20:26:40.237422,p4,4,2024-06-28_20h19.04.036,digit_span,2023.2.3,143.80977999282464,2024-06-28 20h19.34.548291 +0200,
2,0,2,0,13,0,13,0,0,0,0,0,426.7008575000218,,20:26:40.237422,,,,,,,,p4,4,2024-06-28_20h19.04.036,digit_span,2023.2.3,143.80977999282464,2024-06-28 20h19.34.548291 +0200,
2,0,2,0,13,0,13,0,1,0,1,0,427.8013517000363,,,,,,,,,,p4,4,2024-06-28_20h19.04.036,digit_span,2023.2.3,143.80977999282464,2024-06-28 20h19.34.548291 +0200,
2,0,2,0,13,0,13,0,2,0,2,0,428.8996512000449,,,20:26:44.437457,,,,,,,p4,4,2024-06-28_20h19.04.036,digit_span,2023.2.3,143.80977999282464,2024-06-28 20h19.34.548291 +0200,
2,0,2,0,13,0,13,0,,,,,,,,,"[6, 8, 9]",689,space,1.3543420999776572,None,20:26:45.903946,p4,4,2024-06-28_20h19.04.036,digit_span,2023.2.3,143.80977999282464,2024-06-28 20h19.34.548291 +0200,
2,0,2,0,14,0,14,0,0,0,0,0,432.3743805999984,,20:26:45.903946,,,,,,,,p4,4,2024-06-28_20h19.04.036,digit_span,2023.2.3,143.80977999282464,2024-06-28 20h19.34.548291 +0200,
2,0,2,0,14,0,14,0,1,0,1,0,433.4673743000021,,,,,,,,,,p4,4,2024-06-28_20h19.04.036,digit_span,2023.2.3,143.80977999282464,2024-06-28 20h19.34.548291 +0200,
2,0,2,0,14,0,14,0,2,0,2,0,434.5644806000055,,,20:26:50.104978,,,,,,,p4,4,2024-06-28_20h19.04.036,digit_span,2023.2.3,143.80977999282464,2024-06-28 20h19.34.548291 +0200,
2,0,2,0,14,0,14,0,,,,,,,,,"[7, 6, 1]",617,space,1.5333058999967761,None,20:26:51.747447,p4,4,2024-06-28_20h19.04.036,digit_span,2023.2.3,143.80977999282464,2024-06-28 20h19.34.548291 +0200,
2,0,2,0,,,,,,,,,,,,,,,,,,,p4,4,2024-06-28_20h19.04.036,digit_span,2023.2.3,143.80977999282464,2024-06-28 20h19.34.548291 +0200,
2,0,2,0,,,,,,,,,,,,,,,,,,,p4,4,2024-06-28_20h19.04.036,digit_span,2023.2.3,143.80977999282464,2024-06-28 20h19.34.548291 +0200,
