cond.thisRepN,cond.thisTrialN,cond.thisN,cond.thisIndex,trials.thisRepN,trials.thisTrialN,trials.thisN,trials.thisIndex,digit_rep.thisRepN,digit_rep.thisTrialN,digit_rep.thisN,digit_rep.thisIndex,thisRow.t,notes,sequence_started,sequence_ended,digit_sequence,result_box.text,confirm_input.keys,confirm_input.rt,confirm_input.duration,input_ended,participant,order,date,expName,psychopyVersion,frameRate,expStart,
0,0,0,0,0,0,0,0,0,0,0,0,3.0101735000498593,,20:30:03.212770,,,,,,,,p5,5,2024-06-28_20h29.51.749,digit_span,2023.2.3,153.1663308705551,2024-06-28 20h30.01.302126 +0200,
0,0,0,0,0,0,0,0,1,0,1,0,4.02468090003822,,,,,,,,,,p5,5,2024-06-28_20h29.51.749,digit_span,2023.2.3,153.1663308705551,2024-06-28 20h30.01.302126 +0200,
0,0,0,0,0,0,0,0,2,0,2,0,5.139199000026565,,,,,,,,,,p5,5,2024-06-28_20h29.51.749,digit_span,2023.2.3,153.1663308705551,2024-06-28 20h30.01.302126 +0200,
0,0,0,0,0,0,0,0,3,0,3,0,6.245969100040384,,,,,,,,,,p5,5,2024-06-28_20h29.51.749,digit_span,2023.2.3,153.1663308705551,2024-06-28 20h30.01.302126 +0200,
0,0,0,0,0,0,0,0,4,0,4,0,7.332820100011304,,,,,,,,,,p5,5,2024-06-28_20h29.51.749,digit_span,2023.2.3,153.1663308705551,2024-06-28 20h30.01.302126 +0200,
0,0,0,0,0,0,0,0,5,0,5,0,8.429664399998728,,,,,,,,,,p5,5,2024-06-28_20h29.51.749,digit_span,2023.2.3,153.1663308705551,2024-06-28 20h30.01.302126 +0200,
0,0,0,0,0,0,0,0,6,0,6,0,9.528108300000895,,,,,,,,,,p5,5,2024-06-28_20h29.51.749,digit_span,2023.2.3,153.1663308705551,2024-06-28 20h30.01.302126 +0200,
0,0,0,0,0,0,0,0,7,0,7,0,10.643295900023077,,,20:30:12.912306,,,,,,,p5,5,2024-06-28_20h29.51.749,digit_span,2023.2.3,153.1663308705551,2024-06-28 20h30.01.302126 +0200,
0,0,0,0,0,0,0,0,,,,,,,,,"[6, 8, 3, 0, 1, 2, 9, 7]",830712,space,3.533612900006119,None,20:30:16.558512,p5,5,2024-06-28_20h29.51.749,digit_span,2023.2.3,153.1663308705551,2024-06-28 20h30.01.302126 +0200,
0,0,0,0,1,0,1,0,0,0,0,0,16.291491600044537,,20:30:16.558512,,,,,,,,p5,5,2024-06-28_20h29.51.749,digit_span,2023.2.3,153.1663308705551,2024-06-28 20h30.01.302126 +0200,
0,0,0,0,1,0,1,0,1,0,1,0,17.37715220003156,,,,,,,,,,p5,5,2024-06-28_20h29.51.749,digit_span,2023.2.3,153.1663308705551,2024-06-28 20h30.01.302126 +0200,
0,0,0,0,1,0,1,0,2,0,2,0,18.46609660005197,,,,,,,,,,p5,5,2024-06-28_20h29.51.749,digit_span,2023.2.3,153.1663308705551,2024-06-28 20h30.01.302126 +0200,
0,0,0,0,1,0,1,0,3,0,3,0,19.5704530000221,,,,,,,,,,p5,5,2024-06-28_20h29.51.749,digit_span,2023.2.3,153.1663308705551,2024-06-28 20h30.01.302126 +0200,
0,0,0,0,1,0,1,0,4,0,4,0,20.670609600027092,,,,,,,,,,p5,5,2024-06-28_20h29.51.749,digit_span,2023.2.3,153.1663308705551,2024-06-28 20h30.01.302126 +0200,
0,0,0,0,1,0,1,0,5,0,5,0,21.771705900027882,,,,,,,,,,p5,5,2024-06-28_20h29.51.749,digit_span,2023.2.3,153.1663308705551,2024-06-28 20h30.01.302126 +0200,
0,0,0,0,1,0,1,0,6,0,6,0,22.8734311000444,,,,,,,,,,p5,5,2024-06-28_20h29.51.749,digit_span,2023.2.3,153.1663308705551,2024-06-28 20h30.01.302126 +0200,
0,0,0,0,1,0,1,0,7,0,7,0,23.967722500034142,,,20:30:26.259415,,,,,,,p5,5,2024-06-28_20h29.51.749,digit_span,2023.2.3,153.1663308705551,2024-06-28 20h30.01.302126 +0200,
0,0,0,0,1,0,1,0,,,,,,,,,"[4, 5, 1, 0, 7, 6, 2, 8]",451706,space,2.808933300024364,None,20:30:29.177311,p5,5,2024-06-28_20h29.51.749,digit_span,2023.2.3,153.1663308705551,2024-06-28 20h30.01.302126 +0200,
0,0,0,0,2,0,2,0,0,0,0,0,28.88229110004613,,20:30:29.177311,,,,,,,,p5,5,2024-06-28_20h29.51.749,digit_span,2023.2.3,153.1663308705551,2024-06-28 20h30.01.302126 +0200,
0,0,0,0,2,0,2,0,1,0,1,0,29.988592400040943,,,,,,,,,,p5,5,2024-06-28_20h29.51.749,digit_span,2023.2.3,153.1663308705551,2024-06-28 20h30.01.302126 +0200,
0,0,0,0,2,0,2,0,2,0,2,0,31.09043100004783,,,,,,,,,,p5,5,2024-06-28_20h29.51.749,digit_span,2023.2.3,153.1663308705551,2024-06-28 20h30.01.302126 +0200,
0,0,0,0,2,0,2,0,3,0,3,0,32.18870080000488,,,,,,,,,,p5,5,2024-06-28_20h29.51.749,digit_span,2023.2.3,153.1663308705551,2024-06-28 20h30.01.302126 +0200,
0,0,0,0,2,0,2,0,4,0,4,0,33.2854023000109,,,,,,,,,,p5,5,2024-06-28_20h29.51.749,digit_span,2023.2.3,153.1663308705551,2024-06-28 20h30.01.302126 +0200,
0,0,0,0,2,0,2,0,5,0,5,0,34.3926247000345,,,,,,,,,,p5,5,2024-06-28_20h29.51.749,digit_span,2023.2.3,153.1663308705551,2024-06-28 20h30.01.302126 +0200,
0,0,0,0,2,0,2,0,6,0,6,0,35.486988500051666,,,,,,,,,,p5,5,2024-06-28_20h29.51.749,digit_span,2023.2.3,153.1663308705551,2024-06-28 20h30.01.302126 +0200,
0,0,0,0,2,0,2,0,7,0,7,0,36.594059800030664,,,20:30:38.877932,,,,,,,p5,5,2024-06-28_20h29.51.749,digit_span,2023.2.3,153.1663308705551,2024-06-28 20h30.01.302126 +0200,
0,0,0,0,2,0,2,0,,,,,,,,,"[0, 9, 5, 6, 3, 8, 2, 4]",095642,space,2.4031354999751784,None,20:30:41.391010,p5,5,2024-06-28_20h29.51.749,digit_span,2023.2.3,153.1663308705551,2024-06-28 20h30.01.302126 +0200,
0,0,0,0,3,0,3,0,0,0,0,0,41.11235920002218,,20:30:41.391010,,,,,,,,p5,5,2024-06-28_20h29.51.749,digit_span,2023.2.3,153.1663308705551,2024-06-28 20h30.01.302126 +0200,
0,0,0,0,3,0,3,0,1,0,1,0,42.202230099996086,,,,,,,,,,p5,5,2024-06-28_20h29.51.749,digit_span,2023.2.3,153.1663308705551,2024-06-28 20h30.01.302126 +0200,
0,0,0,0,3,0,3,0,2,0,2,0,43.29917970002862,,,,,,,,,,p5,5,2024-06-28_20h29.51.749,digit_span,2023.2.3,153.1663308705551,2024-06-28 20h30.01.302126 +0200,
0,0,0,0,3,0,3,0,3,0,3,0,44.413369600020815,,,,,,,,,,p5,5,2024-06-28_20h29.51.749,digit_span,2023.2.3,153.1663308705551,2024-06-28 20h30.01.302126 +0200,
0,0,0,0,3,0,3,0,4,0,4,0,45.50057690002723,,,,,,,,,,p5,5,2024-06-28_20h29.51.749,digit_span,2023.2.3,153.1663308705551,2024-06-28 20h30.01.302126 +0200,
0,0,0,0,3,0,3,0,5,0,5,0,46.60460040002363,,,,,,,,,,p5,5,2024-06-28_20h29.51.749,digit_span,2023.2.3,153.1663308705551,2024-06-28 20h30.01.302126 +0200,
0,0,0,0,3,0,3,0,6,0,6,0,47.701810400001705,,,,,,,,,,p5,5,2024-06-28_20h29.51.749,digit_span,2023.2.3,153.1663308705551,2024-06-28 20h30.01.302126 +0200,
0,0,0,0,3,0,3,0,7,0,7,0,48.800607300014235,,,20:30:51.091727,,,,,,,p5,5,2024-06-28_20h29.51.749,digit_span,2023.2.3,153.1663308705551,2024-06-28 20h30.01.302126 +0200,
0,0,0,0,3,0,3,0,,,,,,,,,"[8, 4, 2, 6, 3, 7, 9, 5]",42637 ,space,2.6111023999983445,None,20:30:53.815014,p5,5,2024-06-28_20h29.51.749,digit_span,2023.2.3,153.1663308705551,2024-06-28 20h30.01.302126 +0200,
0,0,0,0,4,0,4,0,0,0,0,0,53.521104000043124,,20:30:53.815014,,,,,,,,p5,5,2024-06-28_20h29.51.749,digit_span,2023.2.3,153.1663308705551,2024-06-28 20h30.01.302126 +0200,
0,0,0,0,4,0,4,0,1,0,1,0,54.634329900029115,,,,,,,,,,p5,5,2024-06-28_20h29.51.749,digit_span,2023.2.3,153.1663308705551,2024-06-28 20h30.01.302126 +0200,
0,0,0,0,4,0,4,0,2,0,2,0,55.72252450004453,,,,,,,,,,p5,5,2024-06-28_20h29.51.749,digit_span,2023.2.3,153.1663308705551,2024-06-28 20h30.01.302126 +0200,
0,0,0,0,4,0,4,0,3,0,3,0,56.82672900002217,,,,,,,,,,p5,5,2024-06-28_20h29.51.749,digit_span,2023.2.3,153.1663308705551,2024-06-28 20h30.01.302126 +0200,
0,0,0,0,4,0,4,0,4,0,4,0,57.92720850004116,,,,,,,,,,p5,5,2024-06-28_20h29.51.749,digit_span,2023.2.3,153.1663308705551,2024-06-28 20h30.01.302126 +0200,
0,0,0,0,4,0,4,0,5,0,5,0,59.03677320003044,,,,,,,,,,p5,5,2024-06-28_20h29.51.749,digit_span,2023.2.3,153.1663308705551,2024-06-28 20h30.01.302126 +0200,
0,0,0,0,4,0,4,0,6,0,6,0,60.125257900042925,,,,,,,,,,p5,5,2024-06-28_20h29.51.749,digit_span,2023.2.3,153.1663308705551,2024-06-28 20h30.01.302126 +0200,
0,0,0,0,4,0,4,0,7,0,7,0,61.22771320003085,,,20:31:03.515230,,,,,,,p5,5,2024-06-28_20h29.51.749,digit_span,2023.2.3,153.1663308705551,2024-06-28 20h30.01.302126 +0200,
0,0,0,0,4,0,4,0,,,,,,,,,"[5, 0, 1, 7, 8, 4, 3, 6]",50367,space,2.4760479999822564,None,20:31:06.099856,p5,5,2024-06-28_20h29.51.749,digit_span,2023.2.3,153.1663308705551,2024-06-28 20h30.01.302126 +0200,
0,0,0,0,5,0,5,0,0,0,0,0,65.80525690002833,,20:31:06.099856,,,,,,,,p5,5,2024-06-28_20h29.51.749,digit_span,2023.2.3,153.1663308705551,2024-06-28 20h30.01.302126 +0200,
0,0,0,0,5,0,5,0,1,0,1,0,66.90974690002622,,,,,,,,,,p5,5,2024-06-28_20h29.51.749,digit_span,2023.2.3,153.1663308705551,2024-06-28 20h30.01.302126 +0200,
0,0,0,0,5,0,5,0,2,0,2,0,68.00896010000724,,,,,,,,,,p5,5,2024-06-28_20h29.51.749,digit_span,2023.2.3,153.1663308705551,2024-06-28 20h30.01.302126 +0200,
0,0,0,0,5,0,5,0,3,0,3,0,69.11150490003638,,,,,,,,,,p5,5,2024-06-28_20h29.51.749,digit_span,2023.2.3,153.1663308705551,2024-06-28 20h30.01.302126 +0200,
0,0,0,0,5,0,5,0,4,0,4,0,70.20993530005217,,,,,,,,,,p5,5,2024-06-28_20h29.51.749,digit_span,2023.2.3,153.1663308705551,2024-06-28 20h30.01.302126 +0200,
0,0,0,0,5,0,5,0,5,0,5,0,71.31492380000418,,,,,,,,,,p5,5,2024-06-28_20h29.51.749,digit_span,2023.2.3,153.1663308705551,2024-06-28 20h30.01.302126 +0200,
0,0,0,0,5,0,5,0,6,0,6,0,72.41051700001117,,,,,,,,,,p5,5,2024-06-28_20h29.51.749,digit_span,2023.2.3,153.1663308705551,2024-06-28 20h30.01.302126 +0200,
0,0,0,0,5,0,5,0,7,0,7,0,73.51377600000706,,,20:31:15.800753,,,,,,,p5,5,2024-06-28_20h29.51.749,digit_span,2023.2.3,153.1663308705551,2024-06-28 20h30.01.302126 +0200,
0,0,0,0,5,0,5,0,,,,,,,,,"[1, 7, 2, 9, 0, 4, 3, 5]",27893 ,space,2.73740819998784,None,20:31:18.658645,p5,5,2024-06-28_20h29.51.749,digit_span,2023.2.3,153.1663308705551,2024-06-28 20h30.01.302126 +0200,
0,0,0,0,6,0,6,0,0,0,0,0,78.36764530005166,,20:31:18.658645,,,,,,,,p5,5,2024-06-28_20h29.51.749,digit_span,2023.2.3,153.1663308705551,2024-06-28 20h30.01.302126 +0200,
0,0,0,0,6,0,6,0,1,0,1,0,79.47186520003015,,,,,,,,,,p5,5,2024-06-28_20h29.51.749,digit_span,2023.2.3,153.1663308705551,2024-06-28 20h30.01.302126 +0200,
0,0,0,0,6,0,6,0,2,0,2,0,80.57268630003091,,,,,,,,,,p5,5,2024-06-28_20h29.51.749,digit_span,2023.2.3,153.1663308705551,2024-06-28 20h30.01.302126 +0200,
0,0,0,0,6,0,6,0,3,0,3,0,81.66730960004497,,,,,,,,,,p5,5,2024-06-28_20h29.51.749,digit_span,2023.2.3,153.1663308705551,2024-06-28 20h30.01.302126 +0200,
0,0,0,0,6,0,6,0,4,0,4,0,82.77068519999739,,,,,,,,,,p5,5,2024-06-28_20h29.51.749,digit_span,2023.2.3,153.1663308705551,2024-06-28 20h30.01.302126 +0200,
0,0,0,0,6,0,6,0,5,0,5,0,83.8670786000439,,,,,,,,,,p5,5,2024-06-28_20h29.51.749,digit_span,2023.2.3,153.1663308705551,2024-06-28 20h30.01.302126 +0200,
0,0,0,0,6,0,6,0,6,0,6,0,84.97115450003184,,,,,,,,,,p5,5,2024-06-28_20h29.51.749,digit_span,2023.2.3,153.1663308705551,2024-06-28 20h30.01.302126 +0200,
0,0,0,0,6,0,6,0,7,0,7,0,86.07073610002408,,,20:31:28.360873,,,,,,,p5,5,2024-06-28_20h29.51.749,digit_span,2023.2.3,153.1663308705551,2024-06-28 20h30.01.302126 +0200,
0,0,0,0,6,0,6,0,,,,,,,,,"[4, 0, 1, 6, 5, 8, 2, 9]",948393,space,18.983452300017234,None,20:31:47.452801,p5,5,2024-06-28_20h29.51.749,digit_span,2023.2.3,153.1663308705551,2024-06-28 20h30.01.302126 +0200,
0,0,0,0,7,0,7,0,0,0,0,0,107.15877209999599,,20:31:47.452801,,,,,,,,p5,5,2024-06-28_20h29.51.749,digit_span,2023.2.3,153.1663308705551,2024-06-28 20h30.01.302126 +0200,
0,0,0,0,7,0,7,0,1,0,1,0,108.26289980002912,,,,,,,,,,p5,5,2024-06-28_20h29.51.749,digit_span,2023.2.3,153.1663308705551,2024-06-28 20h30.01.302126 +0200,
0,0,0,0,7,0,7,0,2,0,2,0,109.36011480004527,,,,,,,,,,p5,5,2024-06-28_20h29.51.749,digit_span,2023.2.3,153.1663308705551,2024-06-28 20h30.01.302126 +0200,
0,0,0,0,7,0,7,0,3,0,3,0,110.46384790004231,,,,,,,,,,p5,5,2024-06-28_20h29.51.749,digit_span,2023.2.3,153.1663308705551,2024-06-28 20h30.01.302126 +0200,
0,0,0,0,7,0,7,0,4,0,4,0,111.56086830003187,,,,,,,,,,p5,5,2024-06-28_20h29.51.749,digit_span,2023.2.3,153.1663308705551,2024-06-28 20h30.01.302126 +0200,
0,0,0,0,7,0,7,0,5,0,5,0,112.67637310002465,,,,,,,,,,p5,5,2024-06-28_20h29.51.749,digit_span,2023.2.3,153.1663308705551,2024-06-28 20h30.01.302126 +0200,
0,0,0,0,7,0,7,0,6,0,6,0,113.76272880000761,,,,,,,,,,p5,5,2024-06-28_20h29.51.749,digit_span,2023.2.3,153.1663308705551,2024-06-28 20h30.01.302126 +0200,
0,0,0,0,7,0,7,0,7,0,7,0,114.86260710004717,,,20:31:57.152977,,,,,,,p5,5,2024-06-28_20h29.51.749,digit_span,2023.2.3,153.1663308705551,2024-06-28 20h30.01.302126 +0200,
0,0,0,0,7,0,7,0,,,,,,,,,"[2, 8, 3, 4, 0, 9, 5, 7]",857940-9,space,30.086701399995945,None,20:32:27.346788,p5,5,2024-06-28_20h29.51.749,digit_span,2023.2.3,153.1663308705551,2024-06-28 20h30.01.302126 +0200,
0,0,0,0,8,0,8,0,0,0,0,0,147.0550559000112,,20:32:27.347776,,,,,,,,p5,5,2024-06-28_20h29.51.749,digit_span,2023.2.3,153.1663308705551,2024-06-28 20h30.01.302126 +0200,
0,0,0,0,8,0,8,0,1,0,1,0,148.16142780001974,,,,,,,,,,p5,5,2024-06-28_20h29.51.749,digit_span,2023.2.3,153.1663308705551,2024-06-28 20h30.01.302126 +0200,
0,0,0,0,8,0,8,0,2,0,2,0,149.25487150001572,,,,,,,,,,p5,5,2024-06-28_20h29.51.749,digit_span,2023.2.3,153.1663308705551,2024-06-28 20h30.01.302126 +0200,
0,0,0,0,8,0,8,0,3,0,3,0,150.35978050000267,,,,,,,,,,p5,5,2024-06-28_20h29.51.749,digit_span,2023.2.3,153.1663308705551,2024-06-28 20h30.01.302126 +0200,
0,0,0,0,8,0,8,0,4,0,4,0,151.45765250001568,,,,,,,,,,p5,5,2024-06-28_20h29.51.749,digit_span,2023.2.3,153.1663308705551,2024-06-28 20h30.01.302126 +0200,
0,0,0,0,8,0,8,0,5,0,5,0,152.56051860004663,,,,,,,,,,p5,5,2024-06-28_20h29.51.749,digit_span,2023.2.3,153.1663308705551,2024-06-28 20h30.01.302126 +0200,
0,0,0,0,8,0,8,0,6,0,6,0,153.6623094000388,,,,,,,,,,p5,5,2024-06-28_20h29.51.749,digit_span,2023.2.3,153.1663308705551,2024-06-28 20h30.01.302126 +0200,
0,0,0,0,8,0,8,0,7,0,7,0,154.75900700001512,,,20:32:37.048717,,,,,,,p5,5,2024-06-28_20h29.51.749,digit_span,2023.2.3,153.1663308705551,2024-06-28 20h30.01.302126 +0200,
0,0,0,0,8,0,8,0,,,,,,,,,"[6, 0, 2, 7, 8, 1, 5, 4]",,space,-8.882266100030392,0.13301460002548993,20:32:37.156867,p5,5,2024-06-28_20h29.51.749,digit_span,2023.2.3,153.1663308705551,2024-06-28 20h30.01.302126 +0200,
0,0,0,0,9,0,9,0,0,0,0,0,156.86792170000263,,20:32:37.157866,,,,,,,,p5,5,2024-06-28_20h29.51.749,digit_span,2023.2.3,153.1663308705551,2024-06-28 20h30.01.302126 +0200,
0,0,0,0,9,0,9,0,1,0,1,0,157.9697099000332,,,,,,,,,,p5,5,2024-06-28_20h29.51.749,digit_span,2023.2.3,153.1663308705551,2024-06-28 20h30.01.302126 +0200,
0,0,0,0,9,0,9,0,2,0,2,0,159.06751250004163,,,,,,,,,,p5,5,2024-06-28_20h29.51.749,digit_span,2023.2.3,153.1663308705551,2024-06-28 20h30.01.302126 +0200,
0,0,0,0,9,0,9,0,3,0,3,0,160.16450810001697,,,,,,,,,,p5,5,2024-06-28_20h29.51.749,digit_span,2023.2.3,153.1663308705551,2024-06-28 20h30.01.302126 +0200,
0,0,0,0,9,0,9,0,4,0,4,0,161.26862500002608,,,,,,,,,,p5,5,2024-06-28_20h29.51.749,digit_span,2023.2.3,153.1663308705551,2024-06-28 20h30.01.302126 +0200,
0,0,0,0,9,0,9,0,5,0,5,0,162.36929850000888,,,,,,,,,,p5,5,2024-06-28_20h29.51.749,digit_span,2023.2.3,153.1663308705551,2024-06-28 20h30.01.302126 +0200,
0,0,0,0,9,0,9,0,6,0,6,0,163.47452230000636,,,,,,,,,,p5,5,2024-06-28_20h29.51.749,digit_span,2023.2.3,153.1663308705551,2024-06-28 20h30.01.302126 +0200,
0,0,0,0,9,0,9,0,7,0,7,0,164.57222110003931,,,20:32:46.859531,,,,,,,p5,5,2024-06-28_20h29.51.749,digit_span,2023.2.3,153.1663308705551,2024-06-28 20h30.01.302126 +0200,
0,0,0,0,9,0,9,0,,,,,,,,,"[7, 3, 0, 2, 9, 1, 5, 6]",908784893,space,1.5197510999860242,None,20:32:48.488653,p5,5,2024-06-28_20h29.51.749,digit_span,2023.2.3,153.1663308705551,2024-06-28 20h30.01.302126 +0200,
0,0,0,0,10,0,10,0,0,0,0,0,168.19899620005162,,20:32:48.489651,,,,,,,,p5,5,2024-06-28_20h29.51.749,digit_span,2023.2.3,153.1663308705551,2024-06-28 20h30.01.302126 +0200,
0,0,0,0,10,0,10,0,1,0,1,0,169.29623279999942,,,,,,,,,,p5,5,2024-06-28_20h29.51.749,digit_span,2023.2.3,153.1663308705551,2024-06-28 20h30.01.302126 +0200,
0,0,0,0,10,0,10,0,2,0,2,0,170.40028590004658,,,,,,,,,,p5,5,2024-06-28_20h29.51.749,digit_span,2023.2.3,153.1663308705551,2024-06-28 20h30.01.302126 +0200,
0,0,0,0,10,0,10,0,3,0,3,0,171.50402220000979,,,,,,,,,,p5,5,2024-06-28_20h29.51.749,digit_span,2023.2.3,153.1663308705551,2024-06-28 20h30.01.302126 +0200,
0,0,0,0,10,0,10,0,4,0,4,0,172.60123500000918,,,,,,,,,,p5,5,2024-06-28_20h29.51.749,digit_span,2023.2.3,153.1663308705551,2024-06-28 20h30.01.302126 +0200,
0,0,0,0,10,0,10,0,5,0,5,0,173.69890460005263,,,,,,,,,,p5,5,2024-06-28_20h29.51.749,digit_span,2023.2.3,153.1663308705551,2024-06-28 20h30.01.302126 +0200,
0,0,0,0,10,0,10,0,6,0,6,0,174.80277050001314,,,,,,,,,,p5,5,2024-06-28_20h29.51.749,digit_span,2023.2.3,153.1663308705551,2024-06-28 20h30.01.302126 +0200,
0,0,0,0,10,0,10,0,7,0,7,0,175.906054400024,,,20:32:58.194028,,,,,,,p5,5,2024-06-28_20h29.51.749,digit_span,2023.2.3,153.1663308705551,2024-06-28 20h30.01.302126 +0200,
0,0,0,0,10,0,10,0,,,,,,,,,"[3, 2, 5, 4, 8, 6, 7, 1]",jhgfds,space,1.1485396000207402,None,20:32:59.444466,p5,5,2024-06-28_20h29.51.749,digit_span,2023.2.3,153.1663308705551,2024-06-28 20h30.01.302126 +0200,
0,0,0,0,11,0,11,0,0,0,0,0,179.15475580003113,,20:32:59.444466,,,,,,,,p5,5,2024-06-28_20h29.51.749,digit_span,2023.2.3,153.1663308705551,2024-06-28 20h30.01.302126 +0200,
0,0,0,0,11,0,11,0,1,0,1,0,180.25771720003104,,,,,,,,,,p5,5,2024-06-28_20h29.51.749,digit_span,2023.2.3,153.1663308705551,2024-06-28 20h30.01.302126 +0200,
0,0,0,0,11,0,11,0,2,0,2,0,181.35276140004862,,,,,,,,,,p5,5,2024-06-28_20h29.51.749,digit_span,2023.2.3,153.1663308705551,2024-06-28 20h30.01.302126 +0200,
0,0,0,0,11,0,11,0,3,0,3,0,182.4571029000217,,,,,,,,,,p5,5,2024-06-28_20h29.51.749,digit_span,2023.2.3,153.1663308705551,2024-06-28 20h30.01.302126 +0200,
0,0,0,0,11,0,11,0,4,0,4,0,183.5627362000523,,,,,,,,,,p5,5,2024-06-28_20h29.51.749,digit_span,2023.2.3,153.1663308705551,2024-06-28 20h30.01.302126 +0200,
0,0,0,0,11,0,11,0,5,0,5,0,184.66136850003386,,,,,,,,,,p5,5,2024-06-28_20h29.51.749,digit_span,2023.2.3,153.1663308705551,2024-06-28 20h30.01.302126 +0200,
0,0,0,0,11,0,11,0,6,0,6,0,185.7631146000349,,,,,,,,,,p5,5,2024-06-28_20h29.51.749,digit_span,2023.2.3,153.1663308705551,2024-06-28 20h30.01.302126 +0200,
0,0,0,0,11,0,11,0,7,0,7,0,186.85118850000435,,,20:33:09.144381,,,,,,,p5,5,2024-06-28_20h29.51.749,digit_span,2023.2.3,153.1663308705551,2024-06-28 20h30.01.302126 +0200,
0,0,0,0,11,0,11,0,,,,,,,,,"[9, 6, 3, 0, 1, 7, 8, 4]",42187 ,space,2.7277439999743365,None,20:33:11.990044,p5,5,2024-06-28_20h29.51.749,digit_span,2023.2.3,153.1663308705551,2024-06-28 20h30.01.302126 +0200,
0,0,0,0,12,0,12,0,0,0,0,0,191.69835090002744,,20:33:11.991268,,,,,,,,p5,5,2024-06-28_20h29.51.749,digit_span,2023.2.3,153.1663308705551,2024-06-28 20h30.01.302126 +0200,
0,0,0,0,12,0,12,0,1,0,1,0,192.80786230001831,,,,,,,,,,p5,5,2024-06-28_20h29.51.749,digit_span,2023.2.3,153.1663308705551,2024-06-28 20h30.01.302126 +0200,
0,0,0,0,12,0,12,0,2,0,2,0,193.89957500004675,,,,,,,,,,p5,5,2024-06-28_20h29.51.749,digit_span,2023.2.3,153.1663308705551,2024-06-28 20h30.01.302126 +0200,
0,0,0,0,12,0,12,0,3,0,3,0,195.0046840000432,,,,,,,,,,p5,5,2024-06-28_20h29.51.749,digit_span,2023.2.3,153.1663308705551,2024-06-28 20h30.01.302126 +0200,
0,0,0,0,12,0,12,0,4,0,4,0,196.10689140000613,,,,,,,,,,p5,5,2024-06-28_20h29.51.749,digit_span,2023.2.3,153.1663308705551,2024-06-28 20h30.01.302126 +0200,
0,0,0,0,12,0,12,0,5,0,5,0,197.1982369000325,,,,,,,,,,p5,5,2024-06-28_20h29.51.749,digit_span,2023.2.3,153.1663308705551,2024-06-28 20h30.01.302126 +0200,
0,0,0,0,12,0,12,0,6,0,6,0,198.3021942000487,,,,,,,,,,p5,5,2024-06-28_20h29.51.749,digit_span,2023.2.3,153.1663308705551,2024-06-28 20h30.01.302126 +0200,
0,0,0,0,12,0,12,0,7,0,7,0,199.39945260004606,,,20:33:21.694512,,,,,,,p5,5,2024-06-28_20h29.51.749,digit_span,2023.2.3,153.1663308705551,2024-06-28 20h30.01.302126 +0200,
0,0,0,0,12,0,12,0,,,,,,,,,"[2, 3, 9, 5, 7, 6, 8, 0]",239576,space,2.5042947999900207,None,20:33:24.305755,p5,5,2024-06-28_20h29.51.749,digit_span,2023.2.3,153.1663308705551,2024-06-28 20h30.01.302126 +0200,
0,0,0,0,13,0,13,0,0,0,0,0,204.01532679999946,,20:33:24.305755,,,,,,,,p5,5,2024-06-28_20h29.51.749,digit_span,2023.2.3,153.1663308705551,2024-06-28 20h30.01.302126 +0200,
0,0,0,0,13,0,13,0,1,0,1,0,205.1148370000301,,,,,,,,,,p5,5,2024-06-28_20h29.51.749,digit_span,2023.2.3,153.1663308705551,2024-06-28 20h30.01.302126 +0200,
0,0,0,0,13,0,13,0,2,0,2,0,206.22478230000706,,,,,,,,,,p5,5,2024-06-28_20h29.51.749,digit_span,2023.2.3,153.1663308705551,2024-06-28 20h30.01.302126 +0200,
0,0,0,0,13,0,13,0,3,0,3,0,207.3160001000506,,,,,,,,,,p5,5,2024-06-28_20h29.51.749,digit_span,2023.2.3,153.1663308705551,2024-06-28 20h30.01.302126 +0200,
0,0,0,0,13,0,13,0,4,0,4,0,208.41433840000536,,,,,,,,,,p5,5,2024-06-28_20h29.51.749,digit_span,2023.2.3,153.1663308705551,2024-06-28 20h30.01.302126 +0200,
0,0,0,0,13,0,13,0,5,0,5,0,209.51727920002304,,,,,,,,,,p5,5,2024-06-28_20h29.51.749,digit_span,2023.2.3,153.1663308705551,2024-06-28 20h30.01.302126 +0200,
0,0,0,0,13,0,13,0,6,0,6,0,210.62438019999536,,,,,,,,,,p5,5,2024-06-28_20h29.51.749,digit_span,2023.2.3,153.1663308705551,2024-06-28 20h30.01.302126 +0200,
0,0,0,0,13,0,13,0,7,0,7,0,211.71895110001788,,,20:33:34.011418,,,,,,,p5,5,2024-06-28_20h29.51.749,digit_span,2023.2.3,153.1663308705551,2024-06-28 20h30.01.302126 +0200,
0,0,0,0,13,0,13,0,,,,,,,,,"[6, 7, 9, 5, 3, 2, 4, 8]",6859202,space,3.2738815000047907,None,20:33:37.387878,p5,5,2024-06-28_20h29.51.749,digit_span,2023.2.3,153.1663308705551,2024-06-28 20h30.01.302126 +0200,
0,0,0,0,14,0,14,0,0,0,0,0,217.09377480001422,,20:33:37.387878,,,,,,,,p5,5,2024-06-28_20h29.51.749,digit_span,2023.2.3,153.1663308705551,2024-06-28 20h30.01.302126 +0200,
0,0,0,0,14,0,14,0,1,0,1,0,218.1990519000101,,,,,,,,,,p5,5,2024-06-28_20h29.51.749,digit_span,2023.2.3,153.1663308705551,2024-06-28 20h30.01.302126 +0200,
0,0,0,0,14,0,14,0,2,0,2,0,219.30194570001913,,,,,,,,,,p5,5,2024-06-28_20h29.51.749,digit_span,2023.2.3,153.1663308705551,2024-06-28 20h30.01.302126 +0200,
0,0,0,0,14,0,14,0,3,0,3,0,220.40264710003976,,,,,,,,,,p5,5,2024-06-28_20h29.51.749,digit_span,2023.2.3,153.1663308705551,2024-06-28 20h30.01.302126 +0200,
0,0,0,0,14,0,14,0,4,0,4,0,221.4970741000143,,,,,,,,,,p5,5,2024-06-28_20h29.51.749,digit_span,2023.2.3,153.1663308705551,2024-06-28 20h30.01.302126 +0200,
0,0,0,0,14,0,14,0,5,0,5,0,222.60252710001078,,,,,,,,,,p5,5,2024-06-28_20h29.51.749,digit_span,2023.2.3,153.1663308705551,2024-06-28 20h30.01.302126 +0200,
0,0,0,0,14,0,14,0,6,0,6,0,223.69746610004222,,,,,,,,,,p5,5,2024-06-28_20h29.51.749,digit_span,2023.2.3,153.1663308705551,2024-06-28 20h30.01.302126 +0200,
0,0,0,0,14,0,14,0,7,0,7,0,224.79491290001897,,,20:33:47.087750,,,,,,,p5,5,2024-06-28_20h29.51.749,digit_span,2023.2.3,153.1663308705551,2024-06-28 20h30.01.302126 +0200,
0,0,0,0,14,0,14,0,,,,,,,,,"[5, 9, 7, 3, 2, 1, 0, 6]",497901 ,space,3.047788300027605,None,20:33:50.247968,p5,5,2024-06-28_20h29.51.749,digit_span,2023.2.3,153.1663308705551,2024-06-28 20h30.01.302126 +0200,
0,0,0,0,,,,,,,,,,,,,,,,,,,p5,5,2024-06-28_20h29.51.749,digit_span,2023.2.3,153.1663308705551,2024-06-28 20h30.01.302126 +0200,
1,0,1,0,0,0,0,0,0,0,0,0,230.96146700001555,,20:33:51.250557,,,,,,,,p5,5,2024-06-28_20h29.51.749,digit_span,2023.2.3,153.1663308705551,2024-06-28 20h30.01.302126 +0200,
1,0,1,0,0,0,0,0,1,0,1,0,232.05819910002174,,,,,,,,,,p5,5,2024-06-28_20h29.51.749,digit_span,2023.2.3,153.1663308705551,2024-06-28 20h30.01.302126 +0200,
1,0,1,0,0,0,0,0,2,0,2,0,233.16304320003837,,,20:33:55.455493,,,,,,,p5,5,2024-06-28_20h29.51.749,digit_span,2023.2.3,153.1663308705551,2024-06-28 20h30.01.302126 +0200,
1,0,1,0,0,0,0,0,,,,,,,,,"[3, 5, 7]",2373,space,3.9120212999987416,None,20:33:59.470610,p5,5,2024-06-28_20h29.51.749,digit_span,2023.2.3,153.1663308705551,2024-06-28 20h30.01.302126 +0200,
1,0,1,0,1,0,1,0,0,0,0,0,239.176775800006,,20:33:59.470610,,,,,,,,p5,5,2024-06-28_20h29.51.749,digit_span,2023.2.3,153.1663308705551,2024-06-28 20h30.01.302126 +0200,
1,0,1,0,1,0,1,0,1,0,1,0,240.28540580003755,,,,,,,,,,p5,5,2024-06-28_20h29.51.749,digit_span,2023.2.3,153.1663308705551,2024-06-28 20h30.01.302126 +0200,
1,0,1,0,1,0,1,0,2,0,2,0,241.3843610000331,,,20:34:03.670181,,,,,,,p5,5,2024-06-28_20h29.51.749,digit_span,2023.2.3,153.1663308705551,2024-06-28 20h30.01.302126 +0200,
1,0,1,0,1,0,1,0,,,,,,,,,"[4, 5, 8]",145663 ,space,2.708776100014802,None,20:34:06.490662,p5,5,2024-06-28_20h29.51.749,digit_span,2023.2.3,153.1663308705551,2024-06-28 20h30.01.302126 +0200,
1,0,1,0,2,0,2,0,0,0,0,0,246.19658610003535,,20:34:06.490662,,,,,,,,p5,5,2024-06-28_20h29.51.749,digit_span,2023.2.3,153.1663308705551,2024-06-28 20h30.01.302126 +0200,
1,0,1,0,2,0,2,0,1,0,1,0,247.30136949999724,,,,,,,,,,p5,5,2024-06-28_20h29.51.749,digit_span,2023.2.3,153.1663308705551,2024-06-28 20h30.01.302126 +0200,
1,0,1,0,2,0,2,0,2,0,2,0,248.3989299000241,,,20:34:10.690937,,,,,,,p5,5,2024-06-28_20h29.51.749,digit_span,2023.2.3,153.1663308705551,2024-06-28 20h30.01.302126 +0200,
1,0,1,0,2,0,2,0,,,,,,,,,"[4, 2, 6]",426,space,2.5179334999993443,None,20:34:13.324018,p5,5,2024-06-28_20h29.51.749,digit_span,2023.2.3,153.1663308705551,2024-06-28 20h30.01.302126 +0200,
1,0,1,0,3,0,3,0,0,0,0,0,253.030025700049,,20:34:13.324018,,,,,,,,p5,5,2024-06-28_20h29.51.749,digit_span,2023.2.3,153.1663308705551,2024-06-28 20h30.01.302126 +0200,
1,0,1,0,3,0,3,0,1,0,1,0,254.13428450003266,,,,,,,,,,p5,5,2024-06-28_20h29.51.749,digit_span,2023.2.3,153.1663308705551,2024-06-28 20h30.01.302126 +0200,
1,0,1,0,3,0,3,0,2,0,2,0,255.23845170001732,,,20:34:17.525043,,,,,,,p5,5,2024-06-28_20h29.51.749,digit_span,2023.2.3,153.1663308705551,2024-06-28 20h30.01.302126 +0200,
1,0,1,0,3,0,3,0,,,,,,,,,"[8, 6, 2]",862,space,2.8811080000014044,None,20:34:20.511874,p5,5,2024-06-28_20h29.51.749,digit_span,2023.2.3,153.1663308705551,2024-06-28 20h30.01.302126 +0200,
1,0,1,0,4,0,4,0,0,0,0,0,260.21723790001124,,20:34:20.511874,,,,,,,,p5,5,2024-06-28_20h29.51.749,digit_span,2023.2.3,153.1663308705551,2024-06-28 20h30.01.302126 +0200,
1,0,1,0,4,0,4,0,1,0,1,0,261.3218398000463,,,,,,,,,,p5,5,2024-06-28_20h29.51.749,digit_span,2023.2.3,153.1663308705551,2024-06-28 20h30.01.302126 +0200,
1,0,1,0,4,0,4,0,2,0,2,0,262.4306016000337,,,20:34:24.719137,,,,,,,p5,5,2024-06-28_20h29.51.749,digit_span,2023.2.3,153.1663308705551,2024-06-28 20h30.01.302126 +0200,
1,0,1,0,4,0,4,0,,,,,,,,,"[1, 5, 6]",156 ,space,5.663310299976729,None,20:34:30.490006,p5,5,2024-06-28_20h29.51.749,digit_span,2023.2.3,153.1663308705551,2024-06-28 20h30.01.302126 +0200,
1,0,1,0,5,0,5,0,0,0,0,0,270.1992027000524,,20:34:30.490006,,,,,,,,p5,5,2024-06-28_20h29.51.749,digit_span,2023.2.3,153.1663308705551,2024-06-28 20h30.01.302126 +0200,
1,0,1,0,5,0,5,0,1,0,1,0,271.3005640000338,,,,,,,,,,p5,5,2024-06-28_20h29.51.749,digit_span,2023.2.3,153.1663308705551,2024-06-28 20h30.01.302126 +0200,
1,0,1,0,5,0,5,0,2,0,2,0,272.3980212000315,,,20:34:34.691178,,,,,,,p5,5,2024-06-28_20h29.51.749,digit_span,2023.2.3,153.1663308705551,2024-06-28 20h30.01.302126 +0200,
1,0,1,0,5,0,5,0,,,,,,,,,"[4, 3, 8]",13255,space,7.271710000000894,None,20:34:42.076685,p5,5,2024-06-28_20h29.51.749,digit_span,2023.2.3,153.1663308705551,2024-06-28 20h30.01.302126 +0200,
1,0,1,0,6,0,6,0,0,0,0,0,281.8066163000185,,20:34:42.077682,,,,,,,,p5,5,2024-06-28_20h29.51.749,digit_span,2023.2.3,153.1663308705551,2024-06-28 20h30.01.302126 +0200,
1,0,1,0,6,0,6,0,1,0,1,0,282.90688040002715,,,,,,,,,,p5,5,2024-06-28_20h29.51.749,digit_span,2023.2.3,153.1663308705551,2024-06-28 20h30.01.302126 +0200,
1,0,1,0,6,0,6,0,2,0,2,0,284.0067372000194,,,20:34:46.289380,,,,,,,p5,5,2024-06-28_20h29.51.749,digit_span,2023.2.3,153.1663308705551,2024-06-28 20h30.01.302126 +0200,
1,0,1,0,6,0,6,0,,,,,,,,,"[8, 3, 1]",831,space,2.2236585000064224,None,20:34:48.623464,p5,5,2024-06-28_20h29.51.749,digit_span,2023.2.3,153.1663308705551,2024-06-28 20h30.01.302126 +0200,
1,0,1,0,7,0,7,0,0,0,0,0,288.35890680004377,,20:34:48.623464,,,,,,,,p5,5,2024-06-28_20h29.51.749,digit_span,2023.2.3,153.1663308705551,2024-06-28 20h30.01.302126 +0200,
1,0,1,0,7,0,7,0,1,0,1,0,289.45613700000104,,,,,,,,,,p5,5,2024-06-28_20h29.51.749,digit_span,2023.2.3,153.1663308705551,2024-06-28 20h30.01.302126 +0200,
1,0,1,0,7,0,7,0,2,0,2,0,290.55614350002725,,,20:34:52.838451,,,,,,,p5,5,2024-06-28_20h29.51.749,digit_span,2023.2.3,153.1663308705551,2024-06-28 20h30.01.302126 +0200,
1,0,1,0,7,0,7,0,,,,,,,,,"[4, 0, 3]",831,space,2.6955081000342034,None,20:34:55.640799,p5,5,2024-06-28_20h29.51.749,digit_span,2023.2.3,153.1663308705551,2024-06-28 20h30.01.302126 +0200,
1,0,1,0,8,0,8,0,0,0,0,0,295.36909160000505,,20:34:55.641913,,,,,,,,p5,5,2024-06-28_20h29.51.749,digit_span,2023.2.3,153.1663308705551,2024-06-28 20h30.01.302126 +0200,
1,0,1,0,8,0,8,0,1,0,1,0,296.4694941000198,,,,,,,,,,p5,5,2024-06-28_20h29.51.749,digit_span,2023.2.3,153.1663308705551,2024-06-28 20h30.01.302126 +0200,
1,0,1,0,8,0,8,0,2,0,2,0,297.57533890003106,,,20:34:59.851603,,,,,,,p5,5,2024-06-28_20h29.51.749,digit_span,2023.2.3,153.1663308705551,2024-06-28 20h30.01.302126 +0200,
1,0,1,0,8,0,8,0,,,,,,,,,"[2, 5, 6]",256 ,space,1.685574800008908,None,20:35:01.654928,p5,5,2024-06-28_20h29.51.749,digit_span,2023.2.3,153.1663308705551,2024-06-28 20h30.01.302126 +0200,
1,0,1,0,9,0,9,0,0,0,0,0,301.38424159999704,,20:35:01.656094,,,,,,,,p5,5,2024-06-28_20h29.51.749,digit_span,2023.2.3,153.1663308705551,2024-06-28 20h30.01.302126 +0200,
1,0,1,0,9,0,9,0,1,0,1,0,302.4857232000213,,,,,,,,,,p5,5,2024-06-28_20h29.51.749,digit_span,2023.2.3,153.1663308705551,2024-06-28 20h30.01.302126 +0200,
1,0,1,0,9,0,9,0,2,0,2,0,303.5831723000156,,,20:35:05.866442,,,,,,,p5,5,2024-06-28_20h29.51.749,digit_span,2023.2.3,153.1663308705551,2024-06-28 20h30.01.302126 +0200,
1,0,1,0,9,0,9,0,,,,,,,,,"[1, 4, 5]",145,space,1.8155224999645725,None,20:35:07.788565,p5,5,2024-06-28_20h29.51.749,digit_span,2023.2.3,153.1663308705551,2024-06-28 20h30.01.302126 +0200,
1,0,1,0,10,0,10,0,0,0,0,0,307.51603540004,,20:35:07.789656,,,,,,,,p5,5,2024-06-28_20h29.51.749,digit_span,2023.2.3,153.1663308705551,2024-06-28 20h30.01.302126 +0200,
1,0,1,0,10,0,10,0,1,0,1,0,308.61582700000145,,,,,,,,,,p5,5,2024-06-28_20h29.51.749,digit_span,2023.2.3,153.1663308705551,2024-06-28 20h30.01.302126 +0200,
1,0,1,0,10,0,10,0,2,0,2,0,309.71500900003593,,,20:35:11.999171,,,,,,,p5,5,2024-06-28_20h29.51.749,digit_span,2023.2.3,153.1663308705551,2024-06-28 20h30.01.302126 +0200,
1,0,1,0,10,0,10,0,,,,,,,,,"[7, 6, 3]",763 ,space,1.748923700011801,None,20:35:13.881789,p5,5,2024-06-28_20h29.51.749,digit_span,2023.2.3,153.1663308705551,2024-06-28 20h30.01.302126 +0200,
1,0,1,0,11,0,11,0,0,0,0,0,313.6138277000282,,20:35:13.882784,,,,,,,,p5,5,2024-06-28_20h29.51.749,digit_span,2023.2.3,153.1663308705551,2024-06-28 20h30.01.302126 +0200,
1,0,1,0,11,0,11,0,1,0,1,0,314.71381670003757,,,,,,,,,,p5,5,2024-06-28_20h29.51.749,digit_span,2023.2.3,153.1663308705551,2024-06-28 20h30.01.302126 +0200,
1,0,1,0,11,0,11,0,2,0,2,0,315.81562629999826,,,20:35:18.096442,,,,,,,p5,5,2024-06-28_20h29.51.749,digit_span,2023.2.3,153.1663308705551,2024-06-28 20h30.01.302126 +0200,
1,0,1,0,11,0,11,0,,,,,,,,,"[1, 7, 3]",,space,-4.076029000047129,0.017626400047447532,20:35:18.205936,p5,5,2024-06-28_20h29.51.749,digit_span,2023.2.3,153.1663308705551,2024-06-28 20h30.01.302126 +0200,
1,0,1,0,12,0,12,0,0,0,0,0,317.92907210002886,,20:35:18.207930,,,,,,,,p5,5,2024-06-28_20h29.51.749,digit_span,2023.2.3,153.1663308705551,2024-06-28 20h30.01.302126 +0200,
1,0,1,0,12,0,12,0,1,0,1,0,319.0290335000027,,,,,,,,,,p5,5,2024-06-28_20h29.51.749,digit_span,2023.2.3,153.1663308705551,2024-06-28 20h30.01.302126 +0200,
1,0,1,0,12,0,12,0,2,0,2,0,320.1286483000149,,,20:35:22.412024,,,,,,,p5,5,2024-06-28_20h29.51.749,digit_span,2023.2.3,153.1663308705551,2024-06-28 20h30.01.302126 +0200,
1,0,1,0,12,0,12,0,,,,,,,,,"[3, 7, 0]",1731730 ,space,3.414812000002712,None,20:35:25.957704,p5,5,2024-06-28_20h29.51.749,digit_span,2023.2.3,153.1663308705551,2024-06-28 20h30.01.302126 +0200,
1,0,1,0,13,0,13,0,0,0,0,0,325.67775309999706,,20:35:25.958701,,,,,,,,p5,5,2024-06-28_20h29.51.749,digit_span,2023.2.3,153.1663308705551,2024-06-28 20h30.01.302126 +0200,
1,0,1,0,13,0,13,0,1,0,1,0,326.77635090000695,,,,,,,,,,p5,5,2024-06-28_20h29.51.749,digit_span,2023.2.3,153.1663308705551,2024-06-28 20h30.01.302126 +0200,
1,0,1,0,13,0,13,0,2,0,2,0,327.8764747999958,,,20:35:30.159475,,,,,,,p5,5,2024-06-28_20h29.51.749,digit_span,2023.2.3,153.1663308705551,2024-06-28 20h30.01.302126 +0200,
1,0,1,0,13,0,13,0,,,,,,,,,"[9, 4, 5]",950 ,space,2.0683507000212558,None,20:35:32.344091,p5,5,2024-06-28_20h29.51.749,digit_span,2023.2.3,153.1663308705551,2024-06-28 20h30.01.302126 +0200,
1,0,1,0,14,0,14,0,0,0,0,0,332.0766135000158,,20:35:32.345185,,,,,,,,p5,5,2024-06-28_20h29.51.749,digit_span,2023.2.3,153.1663308705551,2024-06-28 20h30.01.302126 +0200,
1,0,1,0,14,0,14,0,1,0,1,0,333.1744167000288,,,,,,,,,,p5,5,2024-06-28_20h29.51.749,digit_span,2023.2.3,153.1663308705551,2024-06-28 20h30.01.302126 +0200,
1,0,1,0,14,0,14,0,2,0,2,0,334.2739650000003,,,20:35:36.556294,,,,,,,p5,5,2024-06-28_20h29.51.749,digit_span,2023.2.3,153.1663308705551,2024-06-28 20h30.01.302126 +0200,
1,0,1,0,14,0,14,0,,,,,,,,,"[6, 2, 5]",560,space,1.6921091999975033,None,20:35:38.359896,p5,5,2024-06-28_20h29.51.749,digit_span,2023.2.3,153.1663308705551,2024-06-28 20h30.01.302126 +0200,
1,0,1,0,,,,,,,,,,,,,,,,,,,p5,5,2024-06-28_20h29.51.749,digit_span,2023.2.3,153.1663308705551,2024-06-28 20h30.01.302126 +0200,
2,0,2,0,0,0,0,0,0,0,0,0,340.3054212999996,,20:35:40.580676,,,,,,,,p5,5,2024-06-28_20h29.51.749,digit_span,2023.2.3,153.1663308705551,2024-06-28 20h30.01.302126 +0200,
2,0,2,0,0,0,0,0,1,0,1,0,341.40521630004514,,,,,,,,,,p5,5,2024-06-28_20h29.51.749,digit_span,2023.2.3,153.1663308705551,2024-06-28 20h30.01.302126 +0200,
2,0,2,0,0,0,0,0,2,0,2,0,342.5068081000354,,,,,,,,,,p5,5,2024-06-28_20h29.51.749,digit_span,2023.2.3,153.1663308705551,2024-06-28 20h30.01.302126 +0200,
2,0,2,0,0,0,0,0,3,0,3,0,343.60748330003116,,,,,,,,,,p5,5,2024-06-28_20h29.51.749,digit_span,2023.2.3,153.1663308705551,2024-06-28 20h30.01.302126 +0200,
2,0,2,0,0,0,0,0,4,0,4,0,344.7067909000325,,,20:35:46.986778,,,,,,,p5,5,2024-06-28_20h29.51.749,digit_span,2023.2.3,153.1663308705551,2024-06-28 20h30.01.302126 +0200,
2,0,2,0,0,0,0,0,,,,,,,,,"[0, 7, 2, 5, 8]",07258,space,6.0589059999911115,None,20:35:53.155563,p5,5,2024-06-28_20h29.51.749,digit_span,2023.2.3,153.1663308705551,2024-06-28 20h30.01.302126 +0200,
2,0,2,0,1,0,1,0,0,0,0,0,352.88485840003705,,20:35:53.156560,,,,,,,,p5,5,2024-06-28_20h29.51.749,digit_span,2023.2.3,153.1663308705551,2024-06-28 20h30.01.302126 +0200,
2,0,2,0,1,0,1,0,1,0,1,0,353.9841437000432,,,,,,,,,,p5,5,2024-06-28_20h29.51.749,digit_span,2023.2.3,153.1663308705551,2024-06-28 20h30.01.302126 +0200,
2,0,2,0,1,0,1,0,2,0,2,0,355.0835994000081,,,,,,,,,,p5,5,2024-06-28_20h29.51.749,digit_span,2023.2.3,153.1663308705551,2024-06-28 20h30.01.302126 +0200,
2,0,2,0,1,0,1,0,3,0,3,0,356.18525830004364,,,,,,,,,,p5,5,2024-06-28_20h29.51.749,digit_span,2023.2.3,153.1663308705551,2024-06-28 20h30.01.302126 +0200,
2,0,2,0,1,0,1,0,4,0,4,0,357.28490570001304,,,20:35:59.566041,,,,,,,p5,5,2024-06-28_20h29.51.749,digit_span,2023.2.3,153.1663308705551,2024-06-28 20h30.01.302126 +0200,
2,0,2,0,1,0,1,0,,,,,,,,,"[0, 5, 3, 7, 8]",05378 ,space,3.7210540999658406,None,20:36:03.402220,p5,5,2024-06-28_20h29.51.749,digit_span,2023.2.3,153.1663308705551,2024-06-28 20h30.01.302126 +0200,
2,0,2,0,2,0,2,0,0,0,0,0,363.1316119999974,,20:36:03.403212,,,,,,,,p5,5,2024-06-28_20h29.51.749,digit_span,2023.2.3,153.1663308705551,2024-06-28 20h30.01.302126 +0200,
2,0,2,0,2,0,2,0,1,0,1,0,364.231921300001,,,,,,,,,,p5,5,2024-06-28_20h29.51.749,digit_span,2023.2.3,153.1663308705551,2024-06-28 20h30.01.302126 +0200,
2,0,2,0,2,0,2,0,2,0,2,0,365.3328884000075,,,,,,,,,,p5,5,2024-06-28_20h29.51.749,digit_span,2023.2.3,153.1663308705551,2024-06-28 20h30.01.302126 +0200,
2,0,2,0,2,0,2,0,3,0,3,0,366.4330481000361,,,,,,,,,,p5,5,2024-06-28_20h29.51.749,digit_span,2023.2.3,153.1663308705551,2024-06-28 20h30.01.302126 +0200,
2,0,2,0,2,0,2,0,4,0,4,0,367.53028840001207,,,20:36:09.813226,,,,,,,p5,5,2024-06-28_20h29.51.749,digit_span,2023.2.3,153.1663308705551,2024-06-28 20h30.01.302126 +0200,
2,0,2,0,2,0,2,0,,,,,,,,,"[2, 7, 0, 6, 4]",20467,space,2.5591119999880902,None,20:36:12.485095,p5,5,2024-06-28_20h29.51.749,digit_span,2023.2.3,153.1663308705551,2024-06-28 20h30.01.302126 +0200,
2,0,2,0,3,0,3,0,0,0,0,0,372.216017400031,,20:36:12.486176,,,,,,,,p5,5,2024-06-28_20h29.51.749,digit_span,2023.2.3,153.1663308705551,2024-06-28 20h30.01.302126 +0200,
2,0,2,0,3,0,3,0,1,0,1,0,373.31170790002216,,,,,,,,,,p5,5,2024-06-28_20h29.51.749,digit_span,2023.2.3,153.1663308705551,2024-06-28 20h30.01.302126 +0200,
2,0,2,0,3,0,3,0,2,0,2,0,374.4109668000019,,,,,,,,,,p5,5,2024-06-28_20h29.51.749,digit_span,2023.2.3,153.1663308705551,2024-06-28 20h30.01.302126 +0200,
2,0,2,0,3,0,3,0,3,0,3,0,375.5150757000083,,,,,,,,,,p5,5,2024-06-28_20h29.51.749,digit_span,2023.2.3,153.1663308705551,2024-06-28 20h30.01.302126 +0200,
2,0,2,0,3,0,3,0,4,0,4,0,376.61352980002994,,,20:36:18.893417,,,,,,,p5,5,2024-06-28_20h29.51.749,digit_span,2023.2.3,153.1663308705551,2024-06-28 20h30.01.302126 +0200,
2,0,2,0,3,0,3,0,,,,,,,,,"[7, 3, 8, 5, 0]",73850,space,6.469837800017558,None,20:36:25.476060,p5,5,2024-06-28_20h29.51.749,digit_span,2023.2.3,153.1663308705551,2024-06-28 20h30.01.302126 +0200,
2,0,2,0,4,0,4,0,0,0,0,0,385.21218810003484,,20:36:25.476060,,,,,,,,p5,5,2024-06-28_20h29.51.749,digit_span,2023.2.3,153.1663308705551,2024-06-28 20h30.01.302126 +0200,
2,0,2,0,4,0,4,0,1,0,1,0,386.3070929000387,,,,,,,,,,p5,5,2024-06-28_20h29.51.749,digit_span,2023.2.3,153.1663308705551,2024-06-28 20h30.01.302126 +0200,
2,0,2,0,4,0,4,0,2,0,2,0,387.4071721000364,,,,,,,,,,p5,5,2024-06-28_20h29.51.749,digit_span,2023.2.3,153.1663308705551,2024-06-28 20h30.01.302126 +0200,
2,0,2,0,4,0,4,0,3,0,3,0,388.5070702000521,,,,,,,,,,p5,5,2024-06-28_20h29.51.749,digit_span,2023.2.3,153.1663308705551,2024-06-28 20h30.01.302126 +0200,
2,0,2,0,4,0,4,0,4,0,4,0,389.6070323000313,,,20:36:31.889817,,,,,,,p5,5,2024-06-28_20h29.51.749,digit_span,2023.2.3,153.1663308705551,2024-06-28 20h30.01.302126 +0200,
2,0,2,0,4,0,4,0,,,,,,,,,"[3, 5, 7, 1, 6]",5716 ,space,3.4236487000016496,None,20:36:35.430335,p5,5,2024-06-28_20h29.51.749,digit_span,2023.2.3,153.1663308705551,2024-06-28 20h30.01.302126 +0200,
2,0,2,0,5,0,5,0,0,0,0,0,395.1550863000448,,20:36:35.431332,,,,,,,,p5,5,2024-06-28_20h29.51.749,digit_span,2023.2.3,153.1663308705551,2024-06-28 20h30.01.302126 +0200,
2,0,2,0,5,0,5,0,1,0,1,0,396.2545205000206,,,,,,,,,,p5,5,2024-06-28_20h29.51.749,digit_span,2023.2.3,153.1663308705551,2024-06-28 20h30.01.302126 +0200,
2,0,2,0,5,0,5,0,2,0,2,0,397.35391370003344,,,,,,,,,,p5,5,2024-06-28_20h29.51.749,digit_span,2023.2.3,153.1663308705551,2024-06-28 20h30.01.302126 +0200,
2,0,2,0,5,0,5,0,3,0,3,0,398.45358180004405,,,,,,,,,,p5,5,2024-06-28_20h29.51.749,digit_span,2023.2.3,153.1663308705551,2024-06-28 20h30.01.302126 +0200,
2,0,2,0,5,0,5,0,4,0,4,0,399.55342810001457,,,20:36:41.836551,,,,,,,p5,5,2024-06-28_20h29.51.749,digit_span,2023.2.3,153.1663308705551,2024-06-28 20h30.01.302126 +0200,
2,0,2,0,5,0,5,0,,,,,,,,,"[1, 9, 4, 8, 2]",1482,space,2.6906921999761835,None,20:36:44.638967,p5,5,2024-06-28_20h29.51.749,digit_span,2023.2.3,153.1663308705551,2024-06-28 20h30.01.302126 +0200,
2,0,2,0,6,0,6,0,0,0,0,0,404.3690293999971,,20:36:44.639541,,,,,,,,p5,5,2024-06-28_20h29.51.749,digit_span,2023.2.3,153.1663308705551,2024-06-28 20h30.01.302126 +0200,
2,0,2,0,6,0,6,0,1,0,1,0,405.4683821000508,,,,,,,,,,p5,5,2024-06-28_20h29.51.749,digit_span,2023.2.3,153.1663308705551,2024-06-28 20h30.01.302126 +0200,
2,0,2,0,6,0,6,0,2,0,2,0,406.5695242000511,,,,,,,,,,p5,5,2024-06-28_20h29.51.749,digit_span,2023.2.3,153.1663308705551,2024-06-28 20h30.01.302126 +0200,
2,0,2,0,6,0,6,0,3,0,3,0,407.6690882000257,,,,,,,,,,p5,5,2024-06-28_20h29.51.749,digit_span,2023.2.3,153.1663308705551,2024-06-28 20h30.01.302126 +0200,
2,0,2,0,6,0,6,0,4,0,4,0,408.7691967000137,,,20:36:51.051455,,,,,,,p5,5,2024-06-28_20h29.51.749,digit_span,2023.2.3,153.1663308705551,2024-06-28 20h30.01.302126 +0200,
2,0,2,0,6,0,6,0,,,,,,,,,"[0, 9, 4, 2, 5]",09425,space,3.3111312999972142,None,20:36:54.470438,p5,5,2024-06-28_20h29.51.749,digit_span,2023.2.3,153.1663308705551,2024-06-28 20h30.01.302126 +0200,
2,0,2,0,7,0,7,0,0,0,0,0,414.19883360003587,,20:36:54.471436,,,,,,,,p5,5,2024-06-28_20h29.51.749,digit_span,2023.2.3,153.1663308705551,2024-06-28 20h30.01.302126 +0200,
2,0,2,0,7,0,7,0,1,0,1,0,415.29850410000654,,,,,,,,,,p5,5,2024-06-28_20h29.51.749,digit_span,2023.2.3,153.1663308705551,2024-06-28 20h30.01.302126 +0200,
2,0,2,0,7,0,7,0,2,0,2,0,416.39848450000864,,,,,,,,,,p5,5,2024-06-28_20h29.51.749,digit_span,2023.2.3,153.1663308705551,2024-06-28 20h30.01.302126 +0200,
2,0,2,0,7,0,7,0,3,0,3,0,417.49773910001386,,,,,,,,,,p5,5,2024-06-28_20h29.51.749,digit_span,2023.2.3,153.1663308705551,2024-06-28 20h30.01.302126 +0200,
2,0,2,0,7,0,7,0,4,0,4,0,418.60169100004714,,,20:37:00.881149,,,,,,,p5,5,2024-06-28_20h29.51.749,digit_span,2023.2.3,153.1663308705551,2024-06-28 20h30.01.302126 +0200,
2,0,2,0,7,0,7,0,,,,,,,,,"[7, 1, 8, 3, 4]",71834 ,space,4.370454800024163,None,20:37:05.382000,p5,5,2024-06-28_20h29.51.749,digit_span,2023.2.3,153.1663308705551,2024-06-28 20h30.01.302126 +0200,
2,0,2,0,8,0,8,0,0,0,0,0,425.1118751000031,,20:37:05.383002,,,,,,,,p5,5,2024-06-28_20h29.51.749,digit_span,2023.2.3,153.1663308705551,2024-06-28 20h30.01.302126 +0200,
2,0,2,0,8,0,8,0,1,0,1,0,426.21153790003154,,,,,,,,,,p5,5,2024-06-28_20h29.51.749,digit_span,2023.2.3,153.1663308705551,2024-06-28 20h30.01.302126 +0200,
2,0,2,0,8,0,8,0,2,0,2,0,427.3130668000085,,,,,,,,,,p5,5,2024-06-28_20h29.51.749,digit_span,2023.2.3,153.1663308705551,2024-06-28 20h30.01.302126 +0200,
2,0,2,0,8,0,8,0,3,0,3,0,428.4110911000171,,,,,,,,,,p5,5,2024-06-28_20h29.51.749,digit_span,2023.2.3,153.1663308705551,2024-06-28 20h30.01.302126 +0200,
2,0,2,0,8,0,8,0,4,0,4,0,429.51342360000126,,,20:37:11.794527,,,,,,,p5,5,2024-06-28_20h29.51.749,digit_span,2023.2.3,153.1663308705551,2024-06-28 20h30.01.302126 +0200,
2,0,2,0,8,0,8,0,,,,,,,,,"[9, 3, 0, 6, 1]",93061 ,space,4.717551100009587,None,20:37:16.632523,p5,5,2024-06-28_20h29.51.749,digit_span,2023.2.3,153.1663308705551,2024-06-28 20h30.01.302126 +0200,
2,0,2,0,9,0,9,0,0,0,0,0,436.35821660002694,,20:37:16.633520,,,,,,,,p5,5,2024-06-28_20h29.51.749,digit_span,2023.2.3,153.1663308705551,2024-06-28 20h30.01.302126 +0200,
2,0,2,0,9,0,9,0,1,0,1,0,437.46018990001176,,,,,,,,,,p5,5,2024-06-28_20h29.51.749,digit_span,2023.2.3,153.1663308705551,2024-06-28 20h30.01.302126 +0200,
2,0,2,0,9,0,9,0,2,0,2,0,438.5581868000445,,,,,,,,,,p5,5,2024-06-28_20h29.51.749,digit_span,2023.2.3,153.1663308705551,2024-06-28 20h30.01.302126 +0200,
2,0,2,0,9,0,9,0,3,0,3,0,439.65916979999747,,,,,,,,,,p5,5,2024-06-28_20h29.51.749,digit_span,2023.2.3,153.1663308705551,2024-06-28 20h30.01.302126 +0200,
2,0,2,0,9,0,9,0,4,0,4,0,440.75939790002303,,,20:37:23.040275,,,,,,,p5,5,2024-06-28_20h29.51.749,digit_span,2023.2.3,153.1663308705551,2024-06-28 20h30.01.302126 +0200,
2,0,2,0,9,0,9,0,,,,,,,,,"[8, 5, 9, 0, 4]",8904,space,3.2906421999796294,None,20:37:26.444877,p5,5,2024-06-28_20h29.51.749,digit_span,2023.2.3,153.1663308705551,2024-06-28 20h30.01.302126 +0200,
2,0,2,0,10,0,10,0,0,0,0,0,446.1717604000005,,20:37:26.445874,,,,,,,,p5,5,2024-06-28_20h29.51.749,digit_span,2023.2.3,153.1663308705551,2024-06-28 20h30.01.302126 +0200,
2,0,2,0,10,0,10,0,1,0,1,0,447.27169740002137,,,,,,,,,,p5,5,2024-06-28_20h29.51.749,digit_span,2023.2.3,153.1663308705551,2024-06-28 20h30.01.302126 +0200,
2,0,2,0,10,0,10,0,2,0,2,0,448.37161140004173,,,,,,,,,,p5,5,2024-06-28_20h29.51.749,digit_span,2023.2.3,153.1663308705551,2024-06-28 20h30.01.302126 +0200,
2,0,2,0,10,0,10,0,3,0,3,0,449.4731038000318,,,,,,,,,,p5,5,2024-06-28_20h29.51.749,digit_span,2023.2.3,153.1663308705551,2024-06-28 20h30.01.302126 +0200,
2,0,2,0,10,0,10,0,4,0,4,0,450.57425740000326,,,20:37:32.854226,,,,,,,p5,5,2024-06-28_20h29.51.749,digit_span,2023.2.3,153.1663308705551,2024-06-28 20h30.01.302126 +0200,
2,0,2,0,10,0,10,0,,,,,,,,,"[8, 1, 7, 3, 4]",81734 ,space,3.326411999994889,None,20:37:36.300739,p5,5,2024-06-28_20h29.51.749,digit_span,2023.2.3,153.1663308705551,2024-06-28 20h30.01.302126 +0200,
2,0,2,0,11,0,11,0,0,0,0,0,456.01903520000633,,20:37:36.301729,,,,,,,,p5,5,2024-06-28_20h29.51.749,digit_span,2023.2.3,153.1663308705551,2024-06-28 20h30.01.302126 +0200,
2,0,2,0,11,0,11,0,1,0,1,0,457.11825900000986,,,,,,,,,,p5,5,2024-06-28_20h29.51.749,digit_span,2023.2.3,153.1663308705551,2024-06-28 20h30.01.302126 +0200,
2,0,2,0,11,0,11,0,2,0,2,0,458.21823110000696,,,,,,,,,,p5,5,2024-06-28_20h29.51.749,digit_span,2023.2.3,153.1663308705551,2024-06-28 20h30.01.302126 +0200,
2,0,2,0,11,0,11,0,3,0,3,0,459.318523199996,,,,,,,,,,p5,5,2024-06-28_20h29.51.749,digit_span,2023.2.3,153.1663308705551,2024-06-28 20h30.01.302126 +0200,
2,0,2,0,11,0,11,0,4,0,4,0,460.4206016000244,,,20:37:42.717544,,,,,,,p5,5,2024-06-28_20h29.51.749,digit_span,2023.2.3,153.1663308705551,2024-06-28 20h30.01.302126 +0200,
2,0,2,0,11,0,11,0,,,,,,,,,"[1, 7, 9, 8, 0]",17980 ,space,3.1826992999995127,None,20:37:46.019055,p5,5,2024-06-28_20h29.51.749,digit_span,2023.2.3,153.1663308705551,2024-06-28 20h30.01.302126 +0200,
2,0,2,0,12,0,12,0,0,0,0,0,465.7488738000393,,20:37:46.019055,,,,,,,,p5,5,2024-06-28_20h29.51.749,digit_span,2023.2.3,153.1663308705551,2024-06-28 20h30.01.302126 +0200,
2,0,2,0,12,0,12,0,1,0,1,0,466.8489149000379,,,,,,,,,,p5,5,2024-06-28_20h29.51.749,digit_span,2023.2.3,153.1663308705551,2024-06-28 20h30.01.302126 +0200,
2,0,2,0,12,0,12,0,2,0,2,0,467.9506003000424,,,,,,,,,,p5,5,2024-06-28_20h29.51.749,digit_span,2023.2.3,153.1663308705551,2024-06-28 20h30.01.302126 +0200,
2,0,2,0,12,0,12,0,3,0,3,0,469.0524558000034,,,,,,,,,,p5,5,2024-06-28_20h29.51.749,digit_span,2023.2.3,153.1663308705551,2024-06-28 20h30.01.302126 +0200,
2,0,2,0,12,0,12,0,4,0,4,0,470.1499604000128,,,20:37:52.431253,,,,,,,p5,5,2024-06-28_20h29.51.749,digit_span,2023.2.3,153.1663308705551,2024-06-28 20h30.01.302126 +0200,
2,0,2,0,12,0,12,0,,,,,,,,,"[5, 0, 3, 7, 4]",50374 ,space,4.99966090003727,None,20:37:57.554971,p5,5,2024-06-28_20h29.51.749,digit_span,2023.2.3,153.1663308705551,2024-06-28 20h30.01.302126 +0200,
2,0,2,0,13,0,13,0,0,0,0,0,477.27867810003227,,20:37:57.555967,,,,,,,,p5,5,2024-06-28_20h29.51.749,digit_span,2023.2.3,153.1663308705551,2024-06-28 20h30.01.302126 +0200,
2,0,2,0,13,0,13,0,1,0,1,0,478.3800656000385,,,,,,,,,,p5,5,2024-06-28_20h29.51.749,digit_span,2023.2.3,153.1663308705551,2024-06-28 20h30.01.302126 +0200,
2,0,2,0,13,0,13,0,2,0,2,0,479.477847400005,,,,,,,,,,p5,5,2024-06-28_20h29.51.749,digit_span,2023.2.3,153.1663308705551,2024-06-28 20h30.01.302126 +0200,
2,0,2,0,13,0,13,0,3,0,3,0,480.57754220004426,,,,,,,,,,p5,5,2024-06-28_20h29.51.749,digit_span,2023.2.3,153.1663308705551,2024-06-28 20h30.01.302126 +0200,
2,0,2,0,13,0,13,0,4,0,4,0,481.6808499000035,,,20:38:03.961138,,,,,,,p5,5,2024-06-28_20h29.51.749,digit_span,2023.2.3,153.1663308705551,2024-06-28 20h30.01.302126 +0200,
2,0,2,0,13,0,13,0,,,,,,,,,"[9, 4, 1, 5, 3]",94153 ,space,2.497639600012917,None,20:38:06.588762,p5,5,2024-06-28_20h29.51.749,digit_span,2023.2.3,153.1663308705551,2024-06-28 20h30.01.302126 +0200,
2,0,2,0,14,0,14,0,0,0,0,0,486.30931440001586,,20:38:06.589789,,,,,,,,p5,5,2024-06-28_20h29.51.749,digit_span,2023.2.3,153.1663308705551,2024-06-28 20h30.01.302126 +0200,
2,0,2,0,14,0,14,0,1,0,1,0,487.41278559999773,,,,,,,,,,p5,5,2024-06-28_20h29.51.749,digit_span,2023.2.3,153.1663308705551,2024-06-28 20h30.01.302126 +0200,
2,0,2,0,14,0,14,0,2,0,2,0,488.5086573000299,,,,,,,,,,p5,5,2024-06-28_20h29.51.749,digit_span,2023.2.3,153.1663308705551,2024-06-28 20h30.01.302126 +0200,
2,0,2,0,14,0,14,0,3,0,3,0,489.60797640000237,,,,,,,,,,p5,5,2024-06-28_20h29.51.749,digit_span,2023.2.3,153.1663308705551,2024-06-28 20h30.01.302126 +0200,
2,0,2,0,14,0,14,0,4,0,4,0,490.70785470004193,,,20:38:12.991130,,,,,,,p5,5,2024-06-28_20h29.51.749,digit_span,2023.2.3,153.1663308705551,2024-06-28 20h30.01.302126 +0200,
2,0,2,0,14,0,14,0,,,,,,,,,"[1, 3, 8, 4, 9]",13849,space,4.223585899977479,None,20:38:17.324491,p5,5,2024-06-28_20h29.51.749,digit_span,2023.2.3,153.1663308705551,2024-06-28 20h30.01.302126 +0200,
2,0,2,0,,,,,,,,,,,,,,,,,,,p5,5,2024-06-28_20h29.51.749,digit_span,2023.2.3,153.1663308705551,2024-06-28 20h30.01.302126 +0200,
2,0,2,0,,,,,,,,,,,,,,,,,,,p5,5,2024-06-28_20h29.51.749,digit_span,2023.2.3,153.1663308705551,2024-06-28 20h30.01.302126 +0200,
